Folder: cordon-caulle-ash-vents/data/EDX_reports (part 4)

File: site 5_Spectrum 15.txt
#FORMAT      : EMSA/MAS Spectral Data File
#VERSION     : 1.0
#TITLE       : Spectrum 15
#DATE        : 07-APR-2022
#TIME        : 17:25
#OWNER       :
#NPOINTS     : 1024.0
#NCOLUMNS    : 1.0
#XUNITS      : keV
#YUNITS      : counts
#DATATYPE    : XY
#XPERCHAN    : 0.01
#OFFSET      : -0.1
#SIGNALTYPE  : EDS
#CHOFFSET    : 10.0
#LIVETIME    : 43.8409
#REALTIME    : 45.5402
#BEAMKV      : 10.0
#MAGCAM      : 1100.0
#XTILTSTGE   : 0.0
#AZIMANGLE   : 0.0
#ELEVANGLE   : 29.0
#XPOSITION mm: -3.9715
#YPOSITION mm: -9.8078
#ZPOSITION mm: 14.0000
##OXINSTPT   : 4
##OXINSTSTROB: 48.49
##OXINSTELEMS: 8,11,13,14,19,6,20,26
##OXINSTLABEL: 8, 0.525, O
##OXINSTLABEL: 11, 1.041, Na
##OXINSTLABEL: 13, 1.487, Al
##OXINSTLABEL: 14, 1.740, Si
##OXINSTLABEL: 19, 3.314, K
##OXINSTLABEL: 19, 3.590, K
##OXINSTLABEL: 19, 0.260, K
##OXINSTLABEL: 6, 0.277, C
##OXINSTLABEL: 20, 3.692, Ca
##OXINSTLABEL: 20, 4.013, Ca
##OXINSTLABEL: 20, 0.341, Ca
##OXINSTLABEL: 20, 0.303, Ca
##OXINSTLABEL: 26, 6.404, Fe
##OXINSTLABEL: 26, 7.058, Fe
##OXINSTLABEL: 26, 0.703, Fe
##OXINSTLABEL: 26, 0.615, Fe
#SPECTRUM    : Spectral Data Starts Here
-0.10000, 0.0
-0.06000, 0.0
-0.02000, 15.0
0.02000, 993.0
0.06000, 1938.0
0.10000, 109.0
0.14000, 36.0
0.18000, 34.0
0.22000, 105.0
0.26000, 406.0
0.30000, 305.0
0.34000, 46.0
0.38000, 45.0
0.42000, 73.0
0.46000, 353.0
0.50000, 2459.0
0.54000, 2841.0
0.58000, 394.0
0.62000, 44.0
0.66000, 54.0
0.70000, 79.0
0.74000, 70.0
0.78000, 65.0
0.82000, 55.0
0.86000, 82.0
0.90000, 75.0
0.94000, 79.0
0.98000, 105.0
1.02000, 235.0
1.06000, 314.0
1.10000, 132.0
1.14000, 105.0
1.18000, 85.0
1.22000, 108.0
1.26000, 137.0
1.30000, 111.0
1.34000, 116.0
1.38000, 128.0
1.42000, 222.0
1.46000, 860.0
1.50000, 1172.0
1.54000, 515.0
1.58000, 191.0
1.62000, 129.0
1.66000, 408.0
1.70000, 2475.0
1.74000, 5341.0
1.78000, 3291.0
1.82000, 739.0
1.86000, 218.0
1.90000, 83.0
1.94000, 52.0
1.98000, 66.0
2.02000, 71.0
2.06000, 66.0
2.10000, 55.0
2.14000, 59.0
2.18000, 59.0
2.22000, 53.0
2.26000, 67.0
2.30000, 64.0
2.34000, 62.0
2.38000, 66.0
2.42000, 69.0
2.46000, 59.0
2.50000, 58.0
2.54000, 71.0
2.58000, 70.0
2.62000, 67.0
2.66000, 65.0
2.70000, 61.0
2.74000, 59.0
2.78000, 67.0
2.82000, 58.0
2.86000, 59.0
2.90000, 63.0
2.94000, 54.0
2.98000, 66.0
3.02000, 66.0
3.06000, 54.0
3.10000, 47.0
3.14000, 58.0
3.18000, 56.0
3.22000, 56.0
3.26000, 105.0
3.30000, 153.0
3.34000, 142.0
3.38000, 92.0
3.42000, 54.0
3.46000, 51.0
3.50000, 57.0
3.54000, 59.0
3.58000, 59.0
3.62000, 66.0
3.66000, 83.0
3.70000, 81.0
3.74000, 59.0
3.78000, 44.0
3.82000, 41.0
3.86000, 39.0
3.90000, 47.0
3.94000, 54.0
3.98000, 40.0
4.02000, 50.0
4.06000, 40.0
4.10000, 38.0
4.14000, 29.0
4.18000, 38.0
4.22000, 30.0
4.26000, 32.0
4.30000, 38.0
4.34000, 40.0
4.38000, 45.0
4.42000, 34.0
4.46000, 39.0
4.50000, 38.0
4.54000, 33.0
4.58000, 29.0
4.62000, 25.0
4.66000, 39.0
4.70000, 26.0
4.74000, 29.0
4.78000, 28.0
4.82000, 25.0
4.86000, 26.0
4.90000, 24.0
4.94000, 24.0
4.98000, 19.0
5.02000, 24.0
5.06000, 25.0
5.10000, 27.0
5.14000, 19.0
5.18000, 22.0
5.22000, 20.0
5.26000, 22.0
5.30000, 23.0
5.34000, 15.0
5.38000, 21.0
5.42000, 26.0
5.46000, 21.0
5.50000, 14.0
5.54000, 21.0
5.58000, 14.0
5.62000, 23.0
5.66000, 14.0
5.70000, 17.0
5.74000, 20.0
5.78000, 15.0
5.82000, 14.0
5.86000, 11.0
5.90000, 15.0
5.94000, 9.0
5.98000, 17.0
6.02000, 13.0
6.06000, 17.0
6.10000, 16.0
6.14000, 12.0
6.18000, 12.0
6.22000, 7.0
6.26000, 12.0
6.30000, 12.0
6.34000, 9.0
6.38000, 13.0
6.42000, 14.0
6.46000, 11.0
6.50000, 6.0
6.54000, 8.0
6.58000, 9.0
6.62000, 7.0
6.66000, 6.0
6.70000, 11.0
6.74000, 7.0
6.78000, 8.0
6.82000, 6.0
6.86000, 8.0
6.90000, 4.0
6.94000, 6.0
6.98000, 7.0
7.02000, 5.0
7.06000, 5.0
7.10000, 9.0
7.14000, 3.0
7.18000, 2.0
7.22000, 3.0
7.26000, 5.0
7.30000, 4.0
7.34000, 2.0
7.38000, 7.0
7.42000, 2.0
7.46000, 2.0
7.50000, 0.0
7.54000, 2.0
7.58000, 0.0
7.62000, 0.0
7.66000, 1.0
7.70000, 1.0
7.74000, 2.0
7.78000, 0.0
7.82000, 0.0
7.86000, 1.0
7.90000, 0.0
7.94000, 0.0
7.98000, 0.0
8.02000, 0.0
8.06000, 0.0
8.10000, 0.0
8.14000, 0.0
8.18000, 0.0
8.22000, 0.0
8.26000, 0.0
8.30000, 0.0
8.34000, 0.0
8.38000, 0.0
8.42000, 0.0
8.46000, 0.0
8.50000, 0.0
8.54000, 0.0
8.58000, 0.0
8.62000, 0.0
8.66000, 0.0
8.70000, 0.0
8.74000, 0.0
8.78000, 0.0
8.82000, 0.0
8.86000, 0.0
8.90000, 0.0
8.94000, 0.0
8.98000, 0.0
9.02000, 0.0
9.06000, 0.0
9.10000, 0.0
9.14000, 0.0
9.18000, 0.0
9.22000, 0.0
9.26000, 0.0
9.30000, 0.0
9.34000, 0.0
9.38000, 0.0
9.42000, 0.0
9.46000, 0.0
9.50000, 0.0
9.54000, 0.0
9.58000, 0.0
9.62000, 0.0
9.66000, 0.0
9.70000, 0.0
9.74000, 0.0
9.78000, 0.0
9.82000, 0.0
9.86000, 0.0
9.90000, 0.0
9.94000, 0.0
9.98000, 0.0
10.02000, 0.0
10.06000, 0.0
10.10000, 0.0
10.13000, 0.0
#ENDOFDATA   :

File: site 5_Spectrum 16.txt
#FORMAT      : EMSA/MAS Spectral Data File
#VERSION     : 1.0
#TITLE       : Spectrum 16
#DATE        : 07-APR-2022
#TIME        : 17:26
#OWNER       :
#NPOINTS     : 1024.0
#NCOLUMNS    : 1.0
#XUNITS      : keV
#YUNITS      : counts
#DATATYPE    : XY
#XPERCHAN    : 0.01
#OFFSET      : -0.1
#SIGNALTYPE  : EDS
#CHOFFSET    : 10.0
#LIVETIME    : 50.1076
#REALTIME    : 51.4093
#BEAMKV      : 10.0
#MAGCAM      : 1100.0
#XTILTSTGE   : 0.0
#AZIMANGLE   : 0.0
#ELEVANGLE   : 29.0
#XPOSITION mm: -3.9715
#YPOSITION mm: -9.8078
#ZPOSITION mm: 14.0000
##OXINSTPT   : 4
##OXINSTSTROB: 48.43
##OXINSTELEMS: 8,13,14,11,19,6,20
##OXINSTLABEL: 8, 0.525, O
##OXINSTLABEL: 13, 1.487, Al
##OXINSTLABEL: 14, 1.740, Si
##OXINSTLABEL: 11, 1.041, Na
##OXINSTLABEL: 19, 3.314, K
##OXINSTLABEL: 19, 3.590, K
##OXINSTLABEL: 19, 0.260, K
##OXINSTLABEL: 6, 0.277, C
##OXINSTLABEL: 20, 3.692, Ca
##OXINSTLABEL: 20, 4.013, Ca
##OXINSTLABEL: 20, 0.341, Ca
##OXINSTLABEL: 20, 0.303, Ca
#SPECTRUM    : Spectral Data Starts Here
-0.10000, 0.0
-0.06000, 0.0
-0.02000, 21.0
0.02000, 1127.0
0.06000, 2215.0
0.10000, 95.0
0.14000, 16.0
0.18000, 12.0
0.22000, 17.0
0.26000, 83.0
0.30000, 52.0
0.34000, 14.0
0.38000, 11.0
0.42000, 17.0
0.46000, 98.0
0.50000, 804.0
0.54000, 911.0
0.58000, 115.0
0.62000, 11.0
0.66000, 12.0
0.70000, 24.0
0.74000, 18.0
0.78000, 16.0
0.82000, 18.0
0.86000, 23.0
0.90000, 24.0
0.94000, 21.0
0.98000, 39.0
1.02000, 113.0
1.06000, 145.0
1.10000, 60.0
1.14000, 39.0
1.18000, 38.0
1.22000, 49.0
1.26000, 64.0
1.30000, 61.0
1.34000, 63.0
1.38000, 59.0
1.42000, 148.0
1.46000, 505.0
1.50000, 714.0
1.54000, 307.0
1.58000, 123.0
1.62000, 86.0
1.66000, 235.0
1.70000, 1492.0
1.74000, 3188.0
1.78000, 1829.0
1.82000, 493.0
1.86000, 134.0
1.90000, 58.0
1.94000, 29.0
1.98000, 33.0
2.02000, 39.0
2.06000, 35.0
2.10000, 34.0
2.14000, 33.0
2.18000, 31.0
2.22000, 37.0
2.26000, 38.0
2.30000, 39.0
2.34000, 40.0
2.38000, 39.0
2.42000, 50.0
2.46000, 33.0
2.50000, 51.0
2.54000, 35.0
2.58000, 37.0
2.62000, 51.0
2.66000, 51.0
2.70000, 48.0
2.74000, 45.0
2.78000, 40.0
2.82000, 46.0
2.86000, 39.0
2.90000, 50.0
2.94000, 41.0
2.98000, 43.0
3.02000, 41.0
3.06000, 53.0
3.10000, 44.0
3.14000, 43.0
3.18000, 42.0
3.22000, 47.0
3.26000, 78.0
3.30000, 143.0
3.34000, 117.0
3.38000, 69.0
3.42000, 45.0
3.46000, 40.0
3.50000, 50.0
3.54000, 55.0
3.58000, 44.0
3.62000, 56.0
3.66000, 57.0
3.70000, 66.0
3.74000, 47.0
3.78000, 42.0
3.82000, 36.0
3.86000, 41.0
3.90000, 43.0
3.94000, 30.0
3.98000, 41.0
4.02000, 31.0
4.06000, 43.0
4.10000, 39.0
4.14000, 37.0
4.18000, 26.0
4.22000, 33.0
4.26000, 38.0
4.30000, 37.0
4.34000, 31.0
4.38000, 36.0
4.42000, 27.0
4.46000, 40.0
4.50000, 35.0
4.54000, 29.0
4.58000, 36.0
4.62000, 28.0
4.66000, 35.0
4.70000, 33.0
4.74000, 30.0
4.78000, 25.0
4.82000, 28.0
4.86000, 28.0
4.90000, 23.0
4.94000, 27.0
4.98000, 29.0
5.02000, 26.0
5.06000, 22.0
5.10000, 14.0
5.14000, 23.0
5.18000, 26.0
5.22000, 25.0
5.26000, 20.0
5.30000, 25.0
5.34000, 22.0
5.38000, 21.0
5.42000, 19.0
5.46000, 19.0
5.50000, 19.0
5.54000, 23.0
5.58000, 15.0
5.62000, 15.0
5.66000, 20.0
5.70000, 12.0
5.74000, 18.0
5.78000, 24.0
5.82000, 14.0
5.86000, 18.0
5.90000, 14.0
5.94000, 19.0
5.98000, 9.0
6.02000, 19.0
6.06000, 11.0
6.10000, 16.0
6.14000, 14.0
6.18000, 11.0
6.22000, 12.0
6.26000, 13.0
6.30000, 13.0
6.34000, 11.0
6.38000, 10.0
6.42000, 14.0
6.46000, 15.0
6.50000, 9.0
6.54000, 11.0
6.58000, 11.0
6.62000, 6.0
6.66000, 8.0
6.70000, 9.0
6.74000, 5.0
6.78000, 8.0
6.82000, 10.0
6.86000, 8.0
6.90000, 5.0
6.94000, 8.0
6.98000, 9.0
7.02000, 6.0
7.06000, 5.0
7.10000, 4.0
7.14000, 5.0
7.18000, 4.0
7.22000, 6.0
7.26000, 5.0
7.30000, 2.0
7.34000, 1.0
7.38000, 3.0
7.42000, 3.0
7.46000, 2.0
7.50000, 4.0
7.54000, 1.0
7.58000, 3.0
7.62000, 2.0
7.66000, 2.0
7.70000, 0.0
7.74000, 3.0
7.78000, 0.0
7.82000, 0.0
7.86000, 0.0
7.90000, 0.0
7.94000, 1.0
7.98000, 0.0
8.02000, 0.0
8.06000, 0.0
8.10000, 0.0
8.14000, 0.0
8.18000, 0.0
8.22000, 0.0
8.26000, 0.0
8.30000, 0.0
8.34000, 0.0
8.38000, 0.0
8.42000, 0.0
8.46000, 0.0
8.50000, 0.0
8.54000, 0.0
8.58000, 0.0
8.62000, 0.0
8.66000, 0.0
8.70000, 0.0
8.74000, 0.0
8.78000, 0.0
8.82000, 0.0
8.86000, 0.0
8.90000, 0.0
8.94000, 0.0
8.98000, 0.0
9.02000, 0.0
9.06000, 0.0
9.10000, 0.0
9.14000, 0.0
9.18000, 0.0
9.22000, 0.0
9.26000, 0.0
9.30000, 0.0
9.34000, 0.0
9.38000, 0.0
9.42000, 0.0
9.46000, 0.0
9.50000, 0.0
9.54000, 0.0
9.58000, 0.0
9.62000, 0.0
9.66000, 0.0
9.70000, 0.0
9.74000, 0.0
9.78000, 0.0
9.82000, 0.0
9.86000, 0.0
9.90000, 0.0
9.94000, 0.0
9.98000, 0.0
10.02000, 0.0
10.06000, 0.0
10.10000, 0.0
10.13000, 0.0
#ENDOFDATA   :