Folder: cordon-caulle-ash-vents/data/EDX_reports (part 3)

File: site 4_Spectrum 10.txt
#FORMAT      : EMSA/MAS Spectral Data File
#VERSION     : 1.0
#TITLE       : Spectrum 10
#DATE        : 07-APR-2022
#TIME        : 17:10
#OWNER       :
#NPOINTS     : 1024.0
#NCOLUMNS    : 1.0
#XUNITS      : keV
#YUNITS      : counts
#DATATYPE    : XY
#XPERCHAN    : 0.01
#OFFSET      : -0.1
#SIGNALTYPE  : EDS
#CHOFFSET    : 10.0
#LIVETIME    : 123.715
#REALTIME    : 132.227
#BEAMKV      : 10.0
#MAGCAM      : 1700.0
#XTILTSTGE   : 0.0
#AZIMANGLE   : 0.0
#ELEVANGLE   : 29.0
#XPOSITION mm: -5.2765
#YPOSITION mm: 4.4840
#ZPOSITION mm: 14.0000
##OXINSTPT   : 4
##OXINSTSTROB: 48.44
##OXINSTELEMS: 6,8,11,13,14,17,19,20,26,16
##OXINSTLABEL: 6, 0.277, C
##OXINSTLABEL: 8, 0.525, O
##OXINSTLABEL: 11, 1.041, Na
##OXINSTLABEL: 13, 1.487, Al
##OXINSTLABEL: 14, 1.740, Si
##OXINSTLABEL: 17, 2.622, Cl
##OXINSTLABEL: 17, 2.816, Cl
##OXINSTLABEL: 17, 0.181, Cl
##OXINSTLABEL: 19, 3.314, K
##OXINSTLABEL: 19, 3.590, K
##OXINSTLABEL: 19, 0.260, K
##OXINSTLABEL: 20, 3.692, Ca
##OXINSTLABEL: 20, 4.013, Ca
##OXINSTLABEL: 20, 0.341, Ca
##OXINSTLABEL: 20, 0.303, Ca
##OXINSTLABEL: 26, 6.404, Fe
##OXINSTLABEL: 26, 7.058, Fe
##OXINSTLABEL: 26, 0.703, Fe
##OXINSTLABEL: 26, 0.615, Fe
##OXINSTLABEL: 16, 2.308, S
##OXINSTLABEL: 16, 2.464, S
#SPECTRUM    : Spectral Data Starts Here
-0.10000, 0.0
-0.06000, 0.0
-0.02000, 55.0
0.02000, 2792.0
0.06000, 5330.0
0.10000, 503.0
0.14000, 332.0
0.18000, 433.0
0.22000, 1359.0
0.26000, 6233.0
0.30000, 4144.0
0.34000, 588.0
0.38000, 792.0
0.42000, 921.0
0.46000, 3363.0
0.50000, 23649.0
0.54000, 27153.0
0.58000, 3830.0
0.62000, 486.0
0.66000, 631.0
0.70000, 979.0
0.74000, 744.0
0.78000, 611.0
0.82000, 611.0
0.86000, 665.0
0.90000, 731.0
0.94000, 799.0
0.98000, 942.0
1.02000, 2028.0
1.06000, 2205.0
1.10000, 1038.0
1.14000, 727.0
1.18000, 685.0
1.22000, 836.0
1.26000, 958.0
1.30000, 850.0
1.34000, 733.0
1.38000, 706.0
1.42000, 1049.0
1.46000, 2654.0
1.50000, 3431.0
1.54000, 1717.0
1.58000, 897.0
1.62000, 797.0
1.66000, 2288.0
1.70000, 14325.0
1.74000, 30865.0
1.78000, 18656.0
1.82000, 4542.0
1.86000, 1446.0
1.90000, 667.0
1.94000, 442.0
1.98000, 458.0
2.02000, 464.0
2.06000, 439.0
2.10000, 408.0
2.14000, 372.0
2.18000, 377.0
2.22000, 406.0
2.26000, 548.0
2.30000, 674.0
2.34000, 633.0
2.38000, 411.0
2.42000, 369.0
2.46000, 337.0
2.50000, 350.0
2.54000, 394.0
2.58000, 528.0
2.62000, 749.0
2.66000, 627.0
2.70000, 410.0
2.74000, 303.0
2.78000, 293.0
2.82000, 310.0
2.86000, 314.0
2.90000, 282.0
2.94000, 240.0
2.98000, 272.0
3.02000, 253.0
3.06000, 257.0
3.10000, 248.0
3.14000, 263.0
3.18000, 256.0
3.22000, 263.0
3.26000, 341.0
3.30000, 535.0
3.34000, 568.0
3.38000, 359.0
3.42000, 262.0
3.46000, 249.0
3.50000, 233.0
3.54000, 247.0
3.58000, 256.0
3.62000, 308.0
3.66000, 432.0
3.70000, 479.0
3.74000, 399.0
3.78000, 243.0
3.82000, 196.0
3.86000, 205.0
3.90000, 173.0
3.94000, 184.0
3.98000, 208.0
4.02000, 211.0
4.06000, 196.0
4.10000, 165.0
4.14000, 157.0
4.18000, 129.0
4.22000, 145.0
4.26000, 155.0
4.30000, 152.0
4.34000, 146.0
4.38000, 148.0
4.42000, 140.0
4.46000, 133.0
4.50000, 144.0
4.54000, 149.0
4.58000, 134.0
4.62000, 130.0
4.66000, 106.0
4.70000, 123.0
4.74000, 115.0
4.78000, 110.0
4.82000, 114.0
4.86000, 107.0
4.90000, 113.0
4.94000, 109.0
4.98000, 125.0
5.02000, 102.0
5.06000, 108.0
5.10000, 102.0
5.14000, 105.0
5.18000, 90.0
5.22000, 91.0
5.26000, 91.0
5.30000, 94.0
5.34000, 93.0
5.38000, 96.0
5.42000, 85.0
5.46000, 64.0
5.50000, 79.0
5.54000, 73.0
5.58000, 71.0
5.62000, 82.0
5.66000, 84.0
5.70000, 80.0
5.74000, 73.0
5.78000, 85.0
5.82000, 73.0
5.86000, 69.0
5.90000, 69.0
5.94000, 74.0
5.98000, 74.0
6.02000, 67.0
6.06000, 53.0
6.10000, 67.0
6.14000, 54.0
6.18000, 69.0
6.22000, 57.0
6.26000, 72.0
6.30000, 64.0
6.34000, 70.0
6.38000, 100.0
6.42000, 92.0
6.46000, 83.0
6.50000, 54.0
6.54000, 47.0
6.58000, 48.0
6.62000, 49.0
6.66000, 50.0
6.70000, 41.0
6.74000, 42.0
6.78000, 29.0
6.82000, 41.0
6.86000, 41.0
6.90000, 41.0
6.94000, 30.0
6.98000, 45.0
7.02000, 38.0
7.06000, 45.0
7.10000, 48.0
7.14000, 34.0
7.18000, 39.0
7.22000, 39.0
7.26000, 35.0
7.30000, 36.0
7.34000, 40.0
7.38000, 34.0
7.42000, 26.0
7.46000, 25.0
7.50000, 26.0
7.54000, 22.0
7.58000, 22.0
7.62000, 33.0
7.66000, 23.0
7.70000, 25.0
7.74000, 29.0
7.78000, 25.0
7.82000, 27.0
7.86000, 25.0
7.90000, 33.0
7.94000, 24.0
7.98000, 26.0
8.02000, 22.0
8.06000, 19.0
8.10000, 21.0
8.14000, 25.0
8.18000, 20.0
8.22000, 24.0
8.26000, 15.0
8.30000, 10.0
8.34000, 17.0
8.38000, 13.0
8.42000, 21.0
8.46000, 11.0
8.50000, 17.0
8.54000, 19.0
8.58000, 13.0
8.62000, 12.0
8.66000, 15.0
8.70000, 12.0
8.74000, 10.0
8.78000, 12.0
8.82000, 11.0
8.86000, 10.0
8.90000, 8.0
8.94000, 4.0
8.98000, 8.0
9.02000, 9.0
9.06000, 6.0
9.10000, 7.0
9.14000, 4.0
9.18000, 4.0
9.22000, 1.0
9.26000, 5.0
9.30000, 1.0
9.34000, 6.0
9.38000, 2.0
9.42000, 2.0
9.46000, 1.0
9.50000, 3.0
9.54000, 1.0
9.58000, 0.0
9.62000, 0.0
9.66000, 0.0
9.70000, 0.0
9.74000, 0.0
9.78000, 0.0
9.82000, 0.0
9.86000, 0.0
9.90000, 1.0
9.94000, 0.0
9.98000, 0.0
10.02000, 0.0
10.06000, 0.0
10.10000, 0.0
10.13000, 0.0
#ENDOFDATA   :

File: site 5_Spectrum 11.txt
#FORMAT      : EMSA/MAS Spectral Data File
#VERSION     : 1.0
#TITLE       : Spectrum 11
#DATE        : 07-APR-2022
#TIME        : 17:16
#OWNER       :
#NPOINTS     : 1024.0
#NCOLUMNS    : 1.0
#XUNITS      : keV
#YUNITS      : counts
#DATATYPE    : XY
#XPERCHAN    : 0.01
#OFFSET      : -0.1
#SIGNALTYPE  : EDS
#CHOFFSET    : 10.0
#LIVETIME    : 107.407
#REALTIME    : 115.754
#BEAMKV      : 10.0
#MAGCAM      : 1100.0
#XTILTSTGE   : 0.0
#AZIMANGLE   : 0.0
#ELEVANGLE   : 29.0
#XPOSITION mm: -3.9715
#YPOSITION mm: -9.8078
#ZPOSITION mm: 14.0000
##OXINSTPT   : 4
##OXINSTSTROB: 48.44
##OXINSTELEMS: 6,8,11,13,14,19,20,26,12
##OXINSTLABEL: 6, 0.277, C
##OXINSTLABEL: 8, 0.525, O
##OXINSTLABEL: 11, 1.041, Na
##OXINSTLABEL: 13, 1.487, Al
##OXINSTLABEL: 14, 1.740, Si
##OXINSTLABEL: 19, 3.314, K
##OXINSTLABEL: 19, 3.590, K
##OXINSTLABEL: 19, 0.260, K
##OXINSTLABEL: 20, 3.692, Ca
##OXINSTLABEL: 20, 4.013, Ca
##OXINSTLABEL: 20, 0.341, Ca
##OXINSTLABEL: 20, 0.303, Ca
##OXINSTLABEL: 26, 6.404, Fe
##OXINSTLABEL: 26, 7.058, Fe
##OXINSTLABEL: 26, 0.703, Fe
##OXINSTLABEL: 26, 0.615, Fe
##OXINSTLABEL: 12, 1.254, Mg
#SPECTRUM    : Spectral Data Starts Here
-0.10000, 0.0
-0.06000, 0.0
-0.02000, 50.0
0.02000, 2327.0
0.06000, 4616.0
0.10000, 672.0
0.14000, 459.0
0.18000, 548.0
0.22000, 1559.0
0.26000, 6259.0
0.30000, 4069.0
0.34000, 708.0
0.38000, 756.0
0.42000, 1178.0
0.46000, 4999.0
0.50000, 34057.0
0.54000, 39325.0
0.58000, 5577.0
0.62000, 808.0
0.66000, 923.0
0.70000, 1312.0
0.74000, 1037.0
0.78000, 806.0
0.82000, 745.0
0.86000, 730.0
0.90000, 734.0
0.94000, 715.0
0.98000, 820.0
1.02000, 1445.0
1.06000, 1613.0
1.10000, 875.0
1.14000, 703.0
1.18000, 660.0
1.22000, 776.0
1.26000, 829.0
1.30000, 740.0
1.34000, 636.0
1.38000, 628.0
1.42000, 1143.0
1.46000, 4078.0
1.50000, 5719.0
1.54000, 2458.0
1.58000, 840.0
1.62000, 634.0
1.66000, 1784.0
1.70000, 10375.0
1.74000, 22300.0
1.78000, 13578.0
1.82000, 3280.0
1.86000, 1076.0
1.90000, 554.0
1.94000, 368.0
1.98000, 344.0
2.02000, 355.0
2.06000, 334.0
2.10000, 309.0
2.14000, 288.0
2.18000, 313.0
2.22000, 308.0
2.26000, 313.0
2.30000, 306.0
2.34000, 301.0
2.38000, 265.0
2.42000, 273.0
2.46000, 259.0
2.50000, 248.0
2.54000, 247.0
2.58000, 217.0
2.62000, 226.0
2.66000, 234.0
2.70000, 210.0
2.74000, 219.0
2.78000, 199.0
2.82000, 208.0
2.86000, 186.0
2.90000, 210.0
2.94000, 195.0
2.98000, 196.0
3.02000, 181.0
3.06000, 176.0
3.10000, 176.0
3.14000, 192.0
3.18000, 170.0
3.22000, 182.0
3.26000, 229.0
3.30000, 375.0
3.34000, 354.0
3.38000, 221.0
3.42000, 196.0
3.46000, 159.0
3.50000, 169.0
3.54000, 169.0
3.58000, 163.0
3.62000, 171.0
3.66000, 216.0
3.70000, 236.0
3.74000, 195.0
3.78000, 134.0
3.82000, 126.0
3.86000, 129.0
3.90000, 113.0
3.94000, 109.0
3.98000, 111.0
4.02000, 124.0
4.06000, 113.0
4.10000, 109.0
4.14000, 112.0
4.18000, 103.0
4.22000, 92.0
4.26000, 92.0
4.30000, 95.0
4.34000, 91.0
4.38000, 88.0
4.42000, 97.0
4.46000, 112.0
4.50000, 86.0
4.54000, 87.0
4.58000, 84.0
4.62000, 81.0
4.66000, 79.0
4.70000, 65.0
4.74000, 90.0
4.78000, 64.0
4.82000, 79.0
4.86000, 75.0
4.90000, 53.0
4.94000, 65.0
4.98000, 77.0
5.02000, 71.0
5.06000, 53.0
5.10000, 63.0
5.14000, 60.0
5.18000, 57.0
5.22000, 43.0
5.26000, 48.0
5.30000, 51.0
5.34000, 56.0
5.38000, 45.0
5.42000, 47.0
5.46000, 52.0
5.50000, 38.0
5.54000, 48.0
5.58000, 47.0
5.62000, 42.0
5.66000, 50.0
5.70000, 42.0
5.74000, 43.0
5.78000, 40.0
5.82000, 46.0
5.86000, 40.0
5.90000, 40.0
5.94000, 40.0
5.98000, 36.0
6.02000, 34.0
6.06000, 36.0
6.10000, 31.0
6.14000, 33.0
6.18000, 29.0
6.22000, 27.0
6.26000, 32.0
6.30000, 26.0
6.34000, 26.0
6.38000, 26.0
6.42000, 32.0
6.46000, 34.0
6.50000, 25.0
6.54000, 22.0
6.58000, 28.0
6.62000, 20.0
6.66000, 28.0
6.70000, 17.0
6.74000, 19.0
6.78000, 19.0
6.82000, 21.0
6.86000, 20.0
6.90000, 15.0
6.94000, 13.0
6.98000, 15.0
7.02000, 11.0
7.06000, 11.0
7.10000, 13.0
7.14000, 14.0
7.18000, 10.0
7.22000, 9.0
7.26000, 9.0
7.30000, 9.0
7.34000, 8.0
7.38000, 11.0
7.42000, 9.0
7.46000, 7.0
7.50000, 6.0
7.54000, 5.0
7.58000, 7.0
7.62000, 2.0
7.66000, 2.0
7.70000, 3.0
7.74000, 1.0
7.78000, 3.0
7.82000, 2.0
7.86000, 1.0
7.90000, 0.0
7.94000, 0.0
7.98000, 0.0
8.02000, 1.0
8.06000, 0.0
8.10000, 0.0
8.14000, 0.0
8.18000, 0.0
8.22000, 0.0
8.26000, 0.0
8.30000, 0.0
8.34000, 0.0
8.38000, 0.0
8.42000, 0.0
8.46000, 0.0
8.50000, 0.0
8.54000, 0.0
8.58000, 0.0
8.62000, 0.0
8.66000, 0.0
8.70000, 0.0
8.74000, 0.0
8.78000, 0.0
8.82000, 0.0
8.86000, 0.0
8.90000, 0.0
8.94000, 0.0
8.98000, 0.0
9.02000, 1.0
9.06000, 0.0
9.10000, 0.0
9.14000, 0.0
9.18000, 0.0
9.22000, 0.0
9.26000, 0.0
9.30000, 0.0
9.34000, 0.0
9.38000, 0.0
9.42000, 0.0
9.46000, 0.0
9.50000, 0.0
9.54000, 0.0
9.58000, 0.0
9.62000, 0.0
9.66000, 0.0
9.70000, 0.0
9.74000, 0.0
9.78000, 0.0
9.82000, 0.0
9.86000, 0.0
9.90000, 0.0
9.94000, 0.0
9.98000, 0.0
10.02000, 0.0
10.06000, 0.0
10.10000, 0.0
10.13000, 0.0
#ENDOFDATA   :

File: site 5_Spectrum 12.txt
#FORMAT      : EMSA/MAS Spectral Data File
#VERSION     : 1.0
#TITLE       : Spectrum 12
#DATE        : 07-APR-2022
#TIME        : 17:18
#OWNER       :
#NPOINTS     : 1024.0
#NCOLUMNS    : 1.0
#XUNITS      : keV
#YUNITS      : counts
#DATATYPE    : XY
#XPERCHAN    : 0.01
#OFFSET      : -0.1
#SIGNALTYPE  : EDS
#CHOFFSET    : 10.0
#LIVETIME    : 109.946
#REALTIME    : 118.39
#BEAMKV      : 10.0
#MAGCAM      : 1100.0
#XTILTSTGE   : 0.0
#AZIMANGLE   : 0.0
#ELEVANGLE   : 29.0
#XPOSITION mm: -3.9715
#YPOSITION mm: -9.8078
#ZPOSITION mm: 14.0000
##OXINSTPT   : 4
##OXINSTSTROB: 48.41
##OXINSTELEMS: 6,8,11,13,14,19,26,20,12
##OXINSTLABEL: 6, 0.277, C
##OXINSTLABEL: 8, 0.525, O
##OXINSTLABEL: 11, 1.041, Na
##OXINSTLABEL: 13, 1.487, Al
##OXINSTLABEL: 14, 1.740, Si
##OXINSTLABEL: 19, 3.314, K
##OXINSTLABEL: 19, 3.590, K
##OXINSTLABEL: 19, 0.260, K
##OXINSTLABEL: 26, 6.404, Fe
##OXINSTLABEL: 26, 7.058, Fe
##OXINSTLABEL: 26, 0.703, Fe
##OXINSTLABEL: 26, 0.615, Fe
##OXINSTLABEL: 20, 3.692, Ca
##OXINSTLABEL: 20, 4.013, Ca
##OXINSTLABEL: 20, 0.341, Ca
##OXINSTLABEL: 20, 0.303, Ca
##OXINSTLABEL: 12, 1.254, Mg
#SPECTRUM    : Spectral Data Starts Here
-0.10000, 0.0
-0.06000, 0.0
-0.02000, 64.0
0.02000, 2499.0
0.06000, 4665.0
0.10000, 693.0
0.14000, 441.0
0.18000, 563.0
0.22000, 1727.0
0.26000, 7298.0
0.30000, 4547.0
0.34000, 748.0
0.38000, 712.0
0.42000, 1153.0
0.46000, 4835.0
0.50000, 33267.0
0.54000, 38458.0
0.58000, 5396.0
0.62000, 785.0
0.66000, 903.0
0.70000, 1358.0
0.74000, 1129.0
0.78000, 790.0
0.82000, 742.0
0.86000, 747.0
0.90000, 687.0
0.94000, 762.0
0.98000, 808.0
1.02000, 1529.0
1.06000, 1695.0
1.10000, 932.0
1.14000, 698.0
1.18000, 690.0
1.22000, 740.0
1.26000, 835.0
1.30000, 708.0
1.34000, 651.0
1.38000, 678.0
1.42000, 1207.0
1.46000, 4145.0
1.50000, 5701.0
1.54000, 2467.0
1.58000, 816.0
1.62000, 622.0
1.66000, 1663.0
1.70000, 10292.0
1.74000, 22285.0
1.78000, 13416.0
1.82000, 3213.0
1.86000, 1119.0
1.90000, 572.0
1.94000, 376.0
1.98000, 354.0
2.02000, 390.0
2.06000, 326.0
2.10000, 285.0
2.14000, 314.0
2.18000, 272.0
2.22000, 293.0
2.26000, 312.0
2.30000, 297.0
2.34000, 282.0
2.38000, 260.0
2.42000, 251.0
2.46000, 231.0
2.50000, 249.0
2.54000, 243.0
2.58000, 242.0
2.62000, 240.0
2.66000, 223.0
2.70000, 238.0
2.74000, 222.0
2.78000, 205.0
2.82000, 209.0
2.86000, 196.0
2.90000, 184.0
2.94000, 186.0
2.98000, 205.0
3.02000, 178.0
3.06000, 180.0
3.10000, 168.0
3.14000, 184.0
3.18000, 169.0
3.22000, 191.0
3.26000, 275.0
3.30000, 378.0
3.34000, 414.0
3.38000, 254.0
3.42000, 171.0
3.46000, 148.0
3.50000, 155.0
3.54000, 168.0
3.58000, 181.0
3.62000, 196.0
3.66000, 212.0
3.70000, 253.0
3.74000, 204.0
3.78000, 160.0
3.82000, 131.0
3.86000, 121.0
3.90000, 124.0
3.94000, 113.0
3.98000, 134.0
4.02000, 124.0
4.06000, 110.0
4.10000, 105.0
4.14000, 84.0
4.18000, 93.0
4.22000, 95.0
4.26000, 91.0
4.30000, 93.0
4.34000, 99.0
4.38000, 87.0
4.42000, 93.0
4.46000, 84.0
4.50000, 102.0
4.54000, 86.0
4.58000, 79.0
4.62000, 85.0
4.66000, 75.0
4.70000, 70.0
4.74000, 76.0
4.78000, 74.0
4.82000, 66.0
4.86000, 72.0
4.90000, 63.0
4.94000, 66.0
4.98000, 76.0
5.02000, 61.0
5.06000, 66.0
5.10000, 61.0
5.14000, 67.0
5.18000, 65.0
5.22000, 63.0
5.26000, 58.0
5.30000, 41.0
5.34000, 53.0
5.38000, 61.0
5.42000, 57.0
5.46000, 61.0
5.50000, 47.0
5.54000, 56.0
5.58000, 54.0
5.62000, 45.0
5.66000, 33.0
5.70000, 44.0
5.74000, 47.0
5.78000, 41.0
5.82000, 42.0
5.86000, 33.0
5.90000, 43.0
5.94000, 34.0
5.98000, 29.0
6.02000, 31.0
6.06000, 37.0
6.10000, 35.0
6.14000, 24.0
6.18000, 38.0
6.22000, 29.0
6.26000, 27.0
6.30000, 32.0
6.34000, 31.0
6.38000, 36.0
6.42000, 38.0
6.46000, 29.0
6.50000, 19.0
6.54000, 20.0
6.58000, 20.0
6.62000, 19.0
6.66000, 17.0
6.70000, 24.0
6.74000, 16.0
6.78000, 17.0
6.82000, 15.0
6.86000, 12.0
6.90000, 14.0
6.94000, 12.0
6.98000, 18.0
7.02000, 13.0
7.06000, 11.0
7.10000, 14.0
7.14000, 10.0
7.18000, 11.0
7.22000, 11.0
7.26000, 17.0
7.30000, 12.0
7.34000, 7.0
7.38000, 7.0
7.42000, 4.0
7.46000, 6.0
7.50000, 5.0
7.54000, 4.0
7.58000, 7.0
7.62000, 4.0
7.66000, 6.0
7.70000, 5.0
7.74000, 3.0
7.78000, 1.0
7.82000, 3.0
7.86000, 2.0
7.90000, 1.0
7.94000, 1.0
7.98000, 0.0
8.02000, 1.0
8.06000, 0.0
8.10000, 0.0
8.14000, 1.0
8.18000, 0.0
8.22000, 1.0
8.26000, 1.0
8.30000, 0.0
8.34000, 0.0
8.38000, 1.0
8.42000, 0.0
8.46000, 0.0
8.50000, 0.0
8.54000, 1.0
8.58000, 0.0
8.62000, 0.0
8.66000, 0.0
8.70000, 0.0
8.74000, 0.0
8.78000, 0.0
8.82000, 0.0
8.86000, 0.0
8.90000, 0.0
8.94000, 0.0
8.98000, 0.0
9.02000, 0.0
9.06000, 0.0
9.10000, 0.0
9.14000, 0.0
9.18000, 0.0
9.22000, 0.0
9.26000, 0.0
9.30000, 0.0
9.34000, 0.0
9.38000, 0.0
9.42000, 0.0
9.46000, 0.0
9.50000, 0.0
9.54000, 0.0
9.58000, 0.0
9.62000, 0.0
9.66000, 0.0
9.70000, 0.0
9.74000, 0.0
9.78000, 0.0
9.82000, 0.0
9.86000, 0.0
9.90000, 0.0
9.94000, 0.0
9.98000, 0.0
10.02000, 0.0
10.06000, 0.0
10.10000, 0.0
10.13000, 0.0
#ENDOFDATA   :

File: site 5_Spectrum 13.txt
#FORMAT      : EMSA/MAS Spectral Data File
#VERSION     : 1.0
#TITLE       : Spectrum 13
#DATE        : 07-APR-2022
#TIME        : 17:21
#OWNER       :
#NPOINTS     : 1024.0
#NCOLUMNS    : 1.0
#XUNITS      : keV
#YUNITS      : counts
#DATATYPE    : XY
#XPERCHAN    : 0.01
#OFFSET      : -0.1
#SIGNALTYPE  : EDS
#CHOFFSET    : 10.0
#LIVETIME    : 104.827
#REALTIME    : 113.175
#BEAMKV      : 10.0
#MAGCAM      : 1100.0
#XTILTSTGE   : 0.0
#AZIMANGLE   : 0.0
#ELEVANGLE   : 29.0
#XPOSITION mm: -3.9715
#YPOSITION mm: -9.8078
#ZPOSITION mm: 14.0000
##OXINSTPT   : 4
##OXINSTSTROB: 48.52
##OXINSTELEMS: 6,8,11,13,14,19,26,20,12
##OXINSTLABEL: 6, 0.277, C
##OXINSTLABEL: 8, 0.525, O
##OXINSTLABEL: 11, 1.041, Na
##OXINSTLABEL: 13, 1.487, Al
##OXINSTLABEL: 14, 1.740, Si
##OXINSTLABEL: 19, 3.314, K
##OXINSTLABEL: 19, 3.590, K
##OXINSTLABEL: 19, 0.260, K
##OXINSTLABEL: 26, 6.404, Fe
##OXINSTLABEL: 26, 7.058, Fe
##OXINSTLABEL: 26, 0.703, Fe
##OXINSTLABEL: 26, 0.615, Fe
##OXINSTLABEL: 20, 3.692, Ca
##OXINSTLABEL: 20, 4.013, Ca
##OXINSTLABEL: 20, 0.341, Ca
##OXINSTLABEL: 20, 0.303, Ca
##OXINSTLABEL: 12, 1.254, Mg
#SPECTRUM    : Spectral Data Starts Here
-0.10000, 0.0
-0.06000, 1.0
-0.02000, 56.0
0.02000, 2340.0
0.06000, 4576.0
0.10000, 752.0
0.14000, 515.0
0.18000, 649.0
0.22000, 1872.0
0.26000, 7562.0
0.30000, 4873.0
0.34000, 773.0
0.38000, 760.0
0.42000, 1222.0
0.46000, 5072.0
0.50000, 34183.0
0.54000, 39195.0
0.58000, 5531.0
0.62000, 821.0
0.66000, 929.0
0.70000, 1408.0
0.74000, 1098.0
0.78000, 815.0
0.82000, 749.0
0.86000, 744.0
0.90000, 721.0
0.94000, 768.0
0.98000, 887.0
1.02000, 1545.0
1.06000, 1671.0
1.10000, 943.0
1.14000, 715.0
1.18000, 672.0
1.22000, 679.0
1.26000, 801.0
1.30000, 720.0
1.34000, 630.0
1.38000, 594.0
1.42000, 1181.0
1.46000, 3960.0
1.50000, 5463.0
1.54000, 2396.0
1.58000, 849.0
1.62000, 595.0
1.66000, 1650.0
1.70000, 10047.0
1.74000, 21450.0
1.78000, 13073.0
1.82000, 3152.0
1.86000, 1052.0
1.90000, 512.0
1.94000, 370.0
1.98000, 370.0
2.02000, 351.0
2.06000, 330.0
2.10000, 324.0
2.14000, 309.0
2.18000, 304.0
2.22000, 303.0
2.26000, 312.0
2.30000, 331.0
2.34000, 282.0
2.38000, 255.0
2.42000, 248.0
2.46000, 266.0
2.50000, 217.0
2.54000, 237.0
2.58000, 235.0
2.62000, 211.0
2.66000, 218.0
2.70000, 220.0
2.74000, 218.0
2.78000, 214.0
2.82000, 194.0
2.86000, 194.0
2.90000, 173.0
2.94000, 188.0
2.98000, 182.0
3.02000, 189.0
3.06000, 178.0
3.10000, 150.0
3.14000, 163.0
3.18000, 159.0
3.22000, 192.0
3.26000, 261.0
3.30000, 384.0
3.34000, 370.0
3.38000, 250.0
3.42000, 180.0
3.46000, 147.0
3.50000, 144.0
3.54000, 168.0
3.58000, 159.0
3.62000, 184.0
3.66000, 208.0
3.70000, 255.0
3.74000, 183.0
3.78000, 149.0
3.82000, 117.0
3.86000, 112.0
3.90000, 129.0
3.94000, 117.0
3.98000, 119.0
4.02000, 111.0
4.06000, 99.0
4.10000, 101.0
4.14000, 83.0
4.18000, 97.0
4.22000, 99.0
4.26000, 95.0
4.30000, 97.0
4.34000, 82.0
4.38000, 103.0
4.42000, 78.0
4.46000, 86.0
4.50000, 91.0
4.54000, 83.0
4.58000, 91.0
4.62000, 79.0
4.66000, 88.0
4.70000, 72.0
4.74000, 66.0
4.78000, 69.0
4.82000, 71.0
4.86000, 74.0
4.90000, 70.0
4.94000, 71.0
4.98000, 64.0
5.02000, 61.0
5.06000, 53.0
5.10000, 59.0
5.14000, 63.0
5.18000, 56.0
5.22000, 51.0
5.26000, 59.0
5.30000, 50.0
5.34000, 47.0
5.38000, 46.0
5.42000, 62.0
5.46000, 52.0
5.50000, 47.0
5.54000, 56.0
5.58000, 38.0
5.62000, 39.0
5.66000, 42.0
5.70000, 47.0
5.74000, 37.0
5.78000, 37.0
5.82000, 36.0
5.86000, 32.0
5.90000, 42.0
5.94000, 33.0
5.98000, 39.0
6.02000, 25.0
6.06000, 33.0
6.10000, 31.0
6.14000, 35.0
6.18000, 21.0
6.22000, 26.0
6.26000, 32.0
6.30000, 31.0
6.34000, 27.0
6.38000, 30.0
6.42000, 36.0
6.46000, 33.0
6.50000, 23.0
6.54000, 18.0
6.58000, 21.0
6.62000, 19.0
6.66000, 20.0
6.70000, 25.0
6.74000, 24.0
6.78000, 20.0
6.82000, 16.0
6.86000, 16.0
6.90000, 14.0
6.94000, 16.0
6.98000, 21.0
7.02000, 22.0
7.06000, 16.0
7.10000, 6.0
7.14000, 12.0
7.18000, 7.0
7.22000, 6.0
7.26000, 5.0
7.30000, 8.0
7.34000, 5.0
7.38000, 5.0
7.42000, 7.0
7.46000, 6.0
7.50000, 5.0
7.54000, 9.0
7.58000, 2.0
7.62000, 3.0
7.66000, 6.0
7.70000, 3.0
7.74000, 4.0
7.78000, 0.0
7.82000, 4.0
7.86000, 1.0
7.90000, 2.0
7.94000, 0.0
7.98000, 0.0
8.02000, 0.0
8.06000, 0.0
8.10000, 2.0
8.14000, 1.0
8.18000, 0.0
8.22000, 0.0
8.26000, 0.0
8.30000, 0.0
8.34000, 0.0
8.38000, 0.0
8.42000, 0.0
8.46000, 0.0
8.50000, 1.0
8.54000, 0.0
8.58000, 0.0
8.62000, 0.0
8.66000, 0.0
8.70000, 0.0
8.74000, 0.0
8.78000, 0.0
8.82000, 0.0
8.86000, 0.0
8.90000, 0.0
8.94000, 0.0
8.98000, 0.0
9.02000, 0.0
9.06000, 0.0
9.10000, 0.0
9.14000, 0.0
9.18000, 0.0
9.22000, 0.0
9.26000, 0.0
9.30000, 0.0
9.34000, 0.0
9.38000, 0.0
9.42000, 0.0
9.46000, 0.0
9.50000, 0.0
9.54000, 0.0
9.58000, 0.0
9.62000, 0.0
9.66000, 0.0
9.70000, 0.0
9.74000, 0.0
9.78000, 0.0
9.82000, 0.0
9.86000, 0.0
9.90000, 0.0
9.94000, 0.0
9.98000, 0.0
10.02000, 0.0
10.06000, 0.0
10.10000, 0.0
10.13000, 0.0
#ENDOFDATA   :

File: site 5_Spectrum 14.txt
#FORMAT      : EMSA/MAS Spectral Data File
#VERSION     : 1.0
#TITLE       : Spectrum 14
#DATE        : 07-APR-2022
#TIME        : 17:23
#OWNER       :
#NPOINTS     : 1024.0
#NCOLUMNS    : 1.0
#XUNITS      : keV
#YUNITS      : counts
#DATATYPE    : XY
#XPERCHAN    : 0.01
#OFFSET      : -0.1
#SIGNALTYPE  : EDS
#CHOFFSET    : 10.0
#LIVETIME    : 104.938
#REALTIME    : 113.17
#BEAMKV      : 10.0
#MAGCAM      : 1100.0
#XTILTSTGE   : 0.0
#AZIMANGLE   : 0.0
#ELEVANGLE   : 29.0
#XPOSITION mm: -3.9715
#YPOSITION mm: -9.8078
#ZPOSITION mm: 14.0000
##OXINSTPT   : 4
##OXINSTSTROB: 48.47
##OXINSTELEMS: 6,8,11,13,14,19,26,20
##OXINSTLABEL: 6, 0.277, C
##OXINSTLABEL: 8, 0.525, O
##OXINSTLABEL: 11, 1.041, Na
##OXINSTLABEL: 13, 1.487, Al
##OXINSTLABEL: 14, 1.740, Si
##OXINSTLABEL: 19, 3.314, K
##OXINSTLABEL: 19, 3.590, K
##OXINSTLABEL: 19, 0.260, K
##OXINSTLABEL: 26, 6.404, Fe
##OXINSTLABEL: 26, 7.058, Fe
##OXINSTLABEL: 26, 0.703, Fe
##OXINSTLABEL: 26, 0.615, Fe
##OXINSTLABEL: 20, 3.692, Ca
##OXINSTLABEL: 20, 4.013, Ca
##OXINSTLABEL: 20, 0.341, Ca
##OXINSTLABEL: 20, 0.303, Ca
#SPECTRUM    : Spectral Data Starts Here
-0.10000, 0.0
-0.06000, 0.0
-0.02000, 47.0
0.02000, 2361.0
0.06000, 4538.0
0.10000, 686.0
0.14000, 458.0
0.18000, 580.0
0.22000, 1622.0
0.26000, 6499.0
0.30000, 4145.0
0.34000, 690.0
0.38000, 762.0
0.42000, 1162.0
0.46000, 5024.0
0.50000, 33792.0
0.54000, 39149.0
0.58000, 5553.0
0.62000, 796.0
0.66000, 939.0
0.70000, 1333.0
0.74000, 1044.0
0.78000, 767.0
0.82000, 737.0
0.86000, 742.0
0.90000, 738.0
0.94000, 751.0
0.98000, 839.0
1.02000, 1824.0
1.06000, 1930.0
1.10000, 943.0
1.14000, 694.0
1.18000, 703.0
1.22000, 787.0
1.26000, 843.0
1.30000, 753.0
1.34000, 610.0
1.38000, 604.0
1.42000, 1179.0
1.46000, 4097.0
1.50000, 5626.0
1.54000, 2395.0
1.58000, 817.0
1.62000, 613.0
1.66000, 1746.0
1.70000, 10276.0
1.74000, 22185.0
1.78000, 13371.0
1.82000, 3206.0
1.86000, 1072.0
1.90000, 526.0
1.94000, 350.0
1.98000, 359.0
2.02000, 365.0
2.06000, 339.0
2.10000, 327.0
2.14000, 283.0
2.18000, 294.0
2.22000, 301.0
2.26000, 313.0
2.30000, 320.0
2.34000, 275.0
2.38000, 257.0
2.42000, 237.0
2.46000, 243.0
2.50000, 263.0
2.54000, 225.0
2.58000, 253.0
2.62000, 227.0
2.66000, 207.0
2.70000, 213.0
2.74000, 209.0
2.78000, 220.0
2.82000, 208.0
2.86000, 216.0
2.90000, 184.0
2.94000, 189.0
2.98000, 195.0
3.02000, 197.0
3.06000, 165.0
3.10000, 164.0
3.14000, 164.0
3.18000, 171.0
3.22000, 180.0
3.26000, 255.0
3.30000, 414.0
3.34000, 414.0
3.38000, 290.0
3.42000, 179.0
3.46000, 152.0
3.50000, 157.0
3.54000, 160.0
3.58000, 166.0
3.62000, 171.0
3.66000, 215.0
3.70000, 231.0
3.74000, 183.0
3.78000, 154.0
3.82000, 113.0
3.86000, 124.0
3.90000, 107.0
3.94000, 126.0
3.98000, 115.0
4.02000, 142.0
4.06000, 106.0
4.10000, 125.0
4.14000, 105.0
4.18000, 111.0
4.22000, 100.0
4.26000, 96.0
4.30000, 98.0
4.34000, 87.0
4.38000, 96.0
4.42000, 86.0
4.46000, 95.0
4.50000, 102.0
4.54000, 90.0
4.58000, 100.0
4.62000, 89.0
4.66000, 83.0
4.70000, 76.0
4.74000, 70.0
4.78000, 77.0
4.82000, 64.0
4.86000, 68.0
4.90000, 70.0
4.94000, 78.0
4.98000, 63.0
5.02000, 62.0
5.06000, 57.0
5.10000, 61.0
5.14000, 58.0
5.18000, 54.0
5.22000, 57.0
5.26000, 53.0
5.30000, 49.0
5.34000, 47.0
5.38000, 53.0
5.42000, 43.0
5.46000, 45.0
5.50000, 43.0
5.54000, 51.0
5.58000, 40.0
5.62000, 46.0
5.66000, 44.0
5.70000, 41.0
5.74000, 49.0
5.78000, 43.0
5.82000, 43.0
5.86000, 41.0
5.90000, 36.0
5.94000, 38.0
5.98000, 30.0
6.02000, 37.0
6.06000, 35.0
6.10000, 34.0
6.14000, 32.0
6.18000, 28.0
6.22000, 33.0
6.26000, 25.0
6.30000, 32.0
6.34000, 34.0
6.38000, 40.0
6.42000, 30.0
6.46000, 34.0
6.50000, 22.0
6.54000, 27.0
6.58000, 20.0
6.62000, 25.0
6.66000, 17.0
6.70000, 18.0
6.74000, 22.0
6.78000, 22.0
6.82000, 19.0
6.86000, 23.0
6.90000, 18.0
6.94000, 24.0
6.98000, 18.0
7.02000, 8.0
7.06000, 19.0
7.10000, 14.0
7.14000, 15.0
7.18000, 13.0
7.22000, 16.0
7.26000, 13.0
7.30000, 8.0
7.34000, 12.0
7.38000, 8.0
7.42000, 7.0
7.46000, 5.0
7.50000, 6.0
7.54000, 5.0
7.58000, 11.0
7.62000, 6.0
7.66000, 9.0
7.70000, 2.0
7.74000, 5.0
7.78000, 4.0
7.82000, 3.0
7.86000, 3.0
7.90000, 2.0
7.94000, 1.0
7.98000, 2.0
8.02000, 0.0
8.06000, 0.0
8.10000, 0.0
8.14000, 0.0
8.18000, 0.0
8.22000, 0.0
8.26000, 0.0
8.30000, 0.0
8.34000, 0.0
8.38000, 0.0
8.42000, 0.0
8.46000, 0.0
8.50000, 1.0
8.54000, 0.0
8.58000, 0.0
8.62000, 0.0
8.66000, 0.0
8.70000, 0.0
8.74000, 1.0
8.78000, 0.0
8.82000, 0.0
8.86000, 0.0
8.90000, 0.0
8.94000, 0.0
8.98000, 0.0
9.02000, 0.0
9.06000, 0.0
9.10000, 0.0
9.14000, 0.0
9.18000, 0.0
9.22000, 0.0
9.26000, 0.0
9.30000, 0.0
9.34000, 0.0
9.38000, 0.0
9.42000, 0.0
9.46000, 0.0
9.50000, 0.0
9.54000, 0.0
9.58000, 0.0
9.62000, 0.0
9.66000, 0.0
9.70000, 0.0
9.74000, 0.0
9.78000, 0.0
9.82000, 0.0
9.86000, 1.0
9.90000, 0.0
9.94000, 0.0
9.98000, 0.0
10.02000, 0.0
10.06000, 0.0
10.10000, 0.0
10.13000, 0.0
#ENDOFDATA   :