Folder: cordon-caulle-ash-vents/data/EDX_reports

Note: README.md
# cordon-caulle-ash-vents
Resources and analysis accompanying the manuscript, "*Capture of sub-micron volcanic ash particles in a shallow conduit via turbophoresis and sintering.*"

### [Jamie I. Farquharson](mailto:jifarq89@googlemail.com), Hugh Tuffen, Fabian B. Wadsworth, Jonathan M. Castro, C. Ian Schipper 

### Abstract
**Ash emission in explosive silicic eruptions can have widespread impacts for human health, agriculture, infrastructure, and aviation. Estimates of the total grainsize distribution (TGSD) generated during explosive magma fragmentation underpins eruption models and ash dispersal forecasts. Conventionally, the TGSD constrained via erupted deposits is assumed to match the TGSD produced at explosive fragmentation. Here we present observations from within the vent of a recent rhyolitic eruption (Cordón Caulle, Chile, 2011–2012), demonstrating that fine and ultra-fine ash particles are captured and sintered to fracture surfaces, and thus sequestered in the shallow subsurface, rather than emitted. We establish a conceptual model—uniquely contextualised through a combination of syn-eruptive observations and detailed post-eruption field investigation—in which turbophoresis (particle migration towards zones of lower turbulence) and rapid sintering create an inverse relationship between particle size and the probability of its subsurface capture. Such size-dependent capture efficiency preferentially removes submicron-diameter ash from the erupted componentry, decoupling the erupted size distribution from magmatic source conditions and potentially playing an important role in modulating eruption dynamics.**
***

This repository includes a ```data``` folder, containing ash plume and particle size distribution data relevant to this study, as well as Scanning Electron Microscope micrographs. In addition, the Jupyter notebook file, ```Farquharson-et-al-CC-ash-vents.ipynb``` contains the script necessary for data analysis and reproduction of the figures in the ```figs``` folder.
```
.
|
+-- Farquharson-et-al-CC-ash-vents.ipynb
|
+-- data
|   |
|   +-- AN1_sizedist.csv
|   +-- costa_data.csv
|   +-- plume_height.csv
|
+-- fig2a.png
+-- fig2b.png
+-- fig2c.png
|
+-- figs
    |
    +-- fig1.png
    +-- fig2.png
    +-- fig3.png
    +-- fig4.png
```

***
### Usage
Python version >= 3.0 is required. The notebook calls numpy, matplotlib, datetime, pandas, scipy, and sklearn.

File: site 4_Spectrum 1.txt
#FORMAT      : EMSA/MAS Spectral Data File
#VERSION     : 1.0
#TITLE       : Spectrum 1
#DATE        : 07-APR-2022
#TIME        : 16:53
#OWNER       :
#NPOINTS     : 1024.0
#NCOLUMNS    : 1.0
#XUNITS      : keV
#YUNITS      : counts
#DATATYPE    : XY
#XPERCHAN    : 0.01
#OFFSET      : -0.1
#SIGNALTYPE  : EDS
#CHOFFSET    : 10.0
#LIVETIME    : 90.0923
#REALTIME    : 97.9888
#BEAMKV      : 10.0
#MAGCAM      : 1700.0
#XTILTSTGE   : 0.0
#AZIMANGLE   : 0.0
#ELEVANGLE   : 29.0
#XPOSITION mm: -5.2765
#YPOSITION mm: 4.4840
#ZPOSITION mm: 14.0000
##OXINSTPT   : 4
##OXINSTSTROB: 48.41
##OXINSTELEMS: 6,8,11,13,14,19,20,26,22
##OXINSTLABEL: 6, 0.277, C
##OXINSTLABEL: 8, 0.525, O
##OXINSTLABEL: 11, 1.041, Na
##OXINSTLABEL: 13, 1.487, Al
##OXINSTLABEL: 14, 1.740, Si
##OXINSTLABEL: 19, 3.314, K
##OXINSTLABEL: 19, 3.590, K
##OXINSTLABEL: 19, 0.260, K
##OXINSTLABEL: 20, 3.692, Ca
##OXINSTLABEL: 20, 4.013, Ca
##OXINSTLABEL: 20, 0.341, Ca
##OXINSTLABEL: 20, 0.303, Ca
##OXINSTLABEL: 26, 6.404, Fe
##OXINSTLABEL: 26, 7.058, Fe
##OXINSTLABEL: 26, 0.703, Fe
##OXINSTLABEL: 26, 0.615, Fe
##OXINSTLABEL: 22, 4.511, Ti
##OXINSTLABEL: 22, 4.932, Ti
##OXINSTLABEL: 22, 0.452, Ti
##OXINSTLABEL: 22, 0.395, Ti
#SPECTRUM    : Spectral Data Starts Here
-0.10000, 0.0
-0.06000, 0.0
-0.02000, 50.0
0.02000, 2049.0
0.06000, 3850.0
0.10000, 459.0
0.14000, 295.0
0.18000, 372.0
0.22000, 919.0
0.26000, 3502.0
0.30000, 2208.0
0.34000, 511.0
0.38000, 590.0
0.42000, 1001.0
0.46000, 4529.0
0.50000, 31227.0
0.54000, 35682.0
0.58000, 4994.0
0.62000, 632.0
0.66000, 748.0
0.70000, 1185.0
0.74000, 999.0
0.78000, 681.0
0.82000, 640.0
0.86000, 622.0
0.90000, 691.0
0.94000, 690.0
0.98000, 787.0
1.02000, 1583.0
1.06000, 1671.0
1.10000, 906.0
1.14000, 665.0
1.18000, 662.0
1.22000, 761.0
1.26000, 797.0
1.30000, 737.0
1.34000, 659.0
1.38000, 693.0
1.42000, 1341.0
1.46000, 4887.0
1.50000, 6762.0
1.54000, 2893.0
1.58000, 940.0
1.62000, 696.0
1.66000, 2001.0
1.70000, 12050.0
1.74000, 25811.0
1.78000, 15647.0
1.82000, 3696.0
1.86000, 1185.0
1.90000, 526.0
1.94000, 359.0
1.98000, 375.0
2.02000, 376.0
2.06000, 348.0
2.10000, 328.0
2.14000, 332.0
2.18000, 306.0
2.22000, 316.0
2.26000, 348.0
2.30000, 335.0
2.34000, 283.0
2.38000, 267.0
2.42000, 254.0
2.46000, 261.0
2.50000, 262.0
2.54000, 252.0
2.58000, 275.0
2.62000, 302.0
2.66000, 283.0
2.70000, 243.0
2.74000, 236.0
2.78000, 219.0
2.82000, 221.0
2.86000, 210.0
2.90000, 203.0
2.94000, 233.0
2.98000, 184.0
3.02000, 178.0
3.06000, 204.0
3.10000, 178.0
3.14000, 176.0
3.18000, 201.0
3.22000, 239.0
3.26000, 353.0
3.30000, 567.0
3.34000, 535.0
3.38000, 309.0
3.42000, 194.0
3.46000, 185.0
3.50000, 198.0
3.54000, 187.0
3.58000, 194.0
3.62000, 227.0
3.66000, 292.0
3.70000, 354.0
3.74000, 253.0
3.78000, 172.0
3.82000, 152.0
3.86000, 124.0
3.90000, 142.0
3.94000, 123.0
3.98000, 154.0
4.02000, 160.0
4.06000, 154.0
4.10000, 118.0
4.14000, 121.0
4.18000, 110.0
4.22000, 114.0
4.26000, 108.0
4.30000, 108.0
4.34000, 102.0
4.38000, 113.0
4.42000, 109.0
4.46000, 119.0
4.50000, 136.0
4.54000, 137.0
4.58000, 119.0
4.62000, 99.0
4.66000, 100.0
4.70000, 100.0
4.74000, 90.0
4.78000, 92.0
4.82000, 85.0
4.86000, 94.0
4.90000, 87.0
4.94000, 98.0
4.98000, 77.0
5.02000, 82.0
5.06000, 80.0
5.10000, 66.0
5.14000, 79.0
5.18000, 77.0
5.22000, 72.0
5.26000, 69.0
5.30000, 72.0
5.34000, 75.0
5.38000, 67.0
5.42000, 61.0
5.46000, 61.0
5.50000, 59.0
5.54000, 49.0
5.58000, 52.0
5.62000, 59.0
5.66000, 57.0
5.70000, 60.0
5.74000, 64.0
5.78000, 57.0
5.82000, 54.0
5.86000, 57.0
5.90000, 53.0
5.94000, 52.0
5.98000, 48.0
6.02000, 53.0
6.06000, 54.0
6.10000, 52.0
6.14000, 42.0
6.18000, 46.0
6.22000, 35.0
6.26000, 46.0
6.30000, 59.0
6.34000, 68.0
6.38000, 82.0
6.42000, 84.0
6.46000, 67.0
6.50000, 49.0
6.54000, 44.0
6.58000, 38.0
6.62000, 33.0
6.66000, 39.0
6.70000, 35.0
6.74000, 23.0
6.78000, 30.0
6.82000, 29.0
6.86000, 26.0
6.90000, 31.0
6.94000, 32.0
6.98000, 28.0
7.02000, 35.0
7.06000, 38.0
7.10000, 24.0
7.14000, 29.0
7.18000, 27.0
7.22000, 32.0
7.26000, 28.0
7.30000, 25.0
7.34000, 21.0
7.38000, 23.0
7.42000, 18.0
7.46000, 20.0
7.50000, 29.0
7.54000, 21.0
7.58000, 26.0
7.62000, 24.0
7.66000, 18.0
7.70000, 21.0
7.74000, 20.0
7.78000, 16.0
7.82000, 17.0
7.86000, 18.0
7.90000, 18.0
7.94000, 19.0
7.98000, 12.0
8.02000, 14.0
8.06000, 15.0
8.10000, 15.0
8.14000, 13.0
8.18000, 16.0
8.22000, 10.0
8.26000, 10.0
8.30000, 15.0
8.34000, 8.0
8.38000, 11.0
8.42000, 8.0
8.46000, 11.0
8.50000, 6.0
8.54000, 15.0
8.58000, 11.0
8.62000, 8.0
8.66000, 7.0
8.70000, 7.0
8.74000, 9.0
8.78000, 10.0
8.82000, 7.0
8.86000, 9.0
8.90000, 4.0
8.94000, 8.0
8.98000, 4.0
9.02000, 5.0
9.06000, 3.0
9.10000, 3.0
9.14000, 5.0
9.18000, 2.0
9.22000, 2.0
9.26000, 1.0
9.30000, 2.0
9.34000, 1.0
9.38000, 0.0
9.42000, 0.0
9.46000, 0.0
9.50000, 0.0
9.54000, 0.0
9.58000, 0.0
9.62000, 0.0
9.66000, 0.0
9.70000, 0.0
9.74000, 0.0
9.78000, 0.0
9.82000, 0.0
9.86000, 0.0
9.90000, 0.0
9.94000, 0.0
9.98000, 0.0
10.02000, 0.0
10.06000, 0.0
10.10000, 0.0
10.13000, 0.0
#ENDOFDATA   :

File: site 4_Spectrum 2.txt
#FORMAT      : EMSA/MAS Spectral Data File
#VERSION     : 1.0
#TITLE       : Spectrum 2
#DATE        : 07-APR-2022
#TIME        : 16:54
#OWNER       :
#NPOINTS     : 1024.0
#NCOLUMNS    : 1.0
#XUNITS      : keV
#YUNITS      : counts
#DATATYPE    : XY
#XPERCHAN    : 0.01
#OFFSET      : -0.1
#SIGNALTYPE  : EDS
#CHOFFSET    : 10.0
#LIVETIME    : 92.8715
#REALTIME    : 100.757
#BEAMKV      : 10.0
#MAGCAM      : 1700.0
#XTILTSTGE   : 0.0
#AZIMANGLE   : 0.0
#ELEVANGLE   : 29.0
#XPOSITION mm: -5.2765
#YPOSITION mm: 4.4840
#ZPOSITION mm: 14.0000
##OXINSTPT   : 4
##OXINSTSTROB: 48.49
##OXINSTELEMS: 6,8,14,11,13,17,19
##OXINSTLABEL: 6, 0.277, C
##OXINSTLABEL: 8, 0.525, O
##OXINSTLABEL: 14, 1.740, Si
##OXINSTLABEL: 11, 1.041, Na
##OXINSTLABEL: 13, 1.487, Al
##OXINSTLABEL: 17, 2.622, Cl
##OXINSTLABEL: 17, 2.816, Cl
##OXINSTLABEL: 17, 0.181, Cl
##OXINSTLABEL: 19, 3.314, K
##OXINSTLABEL: 19, 3.590, K
##OXINSTLABEL: 19, 0.260, K
#SPECTRUM    : Spectral Data Starts Here
-0.10000, 0.0
-0.06000, 0.0
-0.02000, 45.0
0.02000, 2059.0
0.06000, 4025.0
0.10000, 459.0
0.14000, 250.0
0.18000, 321.0
0.22000, 790.0
0.26000, 3307.0
0.30000, 2191.0
0.34000, 421.0
0.38000, 518.0
0.42000, 893.0
0.46000, 4421.0
0.50000, 31321.0
0.54000, 35968.0
0.58000, 4907.0
0.62000, 473.0
0.66000, 470.0
0.70000, 582.0
0.74000, 507.0
0.78000, 579.0
0.82000, 627.0
0.86000, 612.0
0.90000, 639.0
0.94000, 658.0
0.98000, 687.0
1.02000, 1022.0
1.06000, 1064.0
1.10000, 747.0
1.14000, 609.0
1.18000, 637.0
1.22000, 612.0
1.26000, 644.0
1.30000, 607.0
1.34000, 625.0
1.38000, 594.0
1.42000, 686.0
1.46000, 1054.0
1.50000, 1299.0
1.54000, 928.0
1.58000, 714.0
1.62000, 656.0
1.66000, 2449.0
1.70000, 15589.0
1.74000, 33661.0
1.78000, 20347.0
1.82000, 4694.0
1.86000, 1470.0
1.90000, 611.0
1.94000, 359.0
1.98000, 349.0
2.02000, 351.0
2.06000, 320.0
2.10000, 316.0
2.14000, 313.0
2.18000, 311.0
2.22000, 337.0
2.26000, 349.0
2.30000, 341.0
2.34000, 286.0
2.38000, 289.0
2.42000, 259.0
2.46000, 262.0
2.50000, 255.0
2.54000, 269.0
2.58000, 302.0
2.62000, 418.0
2.66000, 366.0
2.70000, 261.0
2.74000, 250.0
2.78000, 237.0
2.82000, 247.0
2.86000, 230.0
2.90000, 227.0
2.94000, 187.0
2.98000, 213.0
3.02000, 203.0
3.06000, 172.0
3.10000, 192.0
3.14000, 175.0
3.18000, 186.0
3.22000, 213.0
3.26000, 194.0
3.30000, 224.0
3.34000, 221.0
3.38000, 218.0
3.42000, 165.0
3.46000, 177.0
3.50000, 196.0
3.54000, 181.0
3.58000, 173.0
3.62000, 179.0
3.66000, 156.0
3.70000, 161.0
3.74000, 161.0
3.78000, 136.0
3.82000, 135.0
3.86000, 129.0
3.90000, 127.0
3.94000, 102.0
3.98000, 117.0
4.02000, 129.0
4.06000, 124.0
4.10000, 110.0
4.14000, 110.0
4.18000, 114.0
4.22000, 116.0
4.26000, 113.0
4.30000, 102.0
4.34000, 97.0
4.38000, 113.0
4.42000, 116.0
4.46000, 103.0
4.50000, 92.0
4.54000, 93.0
4.58000, 94.0
4.62000, 89.0
4.66000, 89.0
4.70000, 80.0
4.74000, 88.0
4.78000, 86.0
4.82000, 88.0
4.86000, 83.0
4.90000, 94.0
4.94000, 72.0
4.98000, 84.0
5.02000, 79.0
5.06000, 74.0
5.10000, 82.0
5.14000, 78.0
5.18000, 65.0
5.22000, 74.0
5.26000, 75.0
5.30000, 75.0
5.34000, 69.0
5.38000, 64.0
5.42000, 60.0
5.46000, 58.0
5.50000, 53.0
5.54000, 60.0
5.58000, 50.0
5.62000, 61.0
5.66000, 51.0
5.70000, 60.0
5.74000, 47.0
5.78000, 53.0
5.82000, 53.0
5.86000, 46.0
5.90000, 55.0
5.94000, 58.0
5.98000, 51.0
6.02000, 52.0
6.06000, 49.0
6.10000, 42.0
6.14000, 52.0
6.18000, 52.0
6.22000, 43.0
6.26000, 50.0
6.30000, 44.0
6.34000, 43.0
6.38000, 45.0
6.42000, 35.0
6.46000, 38.0
6.50000, 45.0
6.54000, 44.0
6.58000, 29.0
6.62000, 43.0
6.66000, 36.0
6.70000, 34.0
6.74000, 28.0
6.78000, 29.0
6.82000, 33.0
6.86000, 37.0
6.90000, 32.0
6.94000, 26.0
6.98000, 28.0
7.02000, 33.0
7.06000, 30.0
7.10000, 22.0
7.14000, 33.0
7.18000, 22.0
7.22000, 24.0
7.26000, 22.0
7.30000, 23.0
7.34000, 18.0
7.38000, 20.0
7.42000, 21.0
7.46000, 23.0
7.50000, 16.0
7.54000, 21.0
7.58000, 14.0
7.62000, 16.0
7.66000, 23.0
7.70000, 16.0
7.74000, 17.0
7.78000, 21.0
7.82000, 20.0
7.86000, 16.0
7.90000, 14.0
7.94000, 15.0
7.98000, 12.0
8.02000, 10.0
8.06000, 13.0
8.10000, 16.0
8.14000, 12.0
8.18000, 12.0
8.22000, 14.0
8.26000, 9.0
8.30000, 10.0
8.34000, 11.0
8.38000, 7.0
8.42000, 12.0
8.46000, 10.0
8.50000, 6.0
8.54000, 9.0
8.58000, 16.0
8.62000, 6.0
8.66000, 8.0
8.70000, 12.0
8.74000, 2.0
8.78000, 4.0
8.82000, 2.0
8.86000, 8.0
8.90000, 10.0
8.94000, 7.0
8.98000, 3.0
9.02000, 4.0
9.06000, 2.0
9.10000, 2.0
9.14000, 1.0
9.18000, 1.0
9.22000, 3.0
9.26000, 0.0
9.30000, 1.0
9.34000, 2.0
9.38000, 1.0
9.42000, 0.0
9.46000, 0.0
9.50000, 0.0
9.54000, 0.0
9.58000, 0.0
9.62000, 0.0
9.66000, 0.0
9.70000, 0.0
9.74000, 0.0
9.78000, 0.0
9.82000, 0.0
9.86000, 0.0
9.90000, 0.0
9.94000, 0.0
9.98000, 0.0
10.02000, 0.0
10.06000, 0.0
10.10000, 0.0
10.13000, 0.0
#ENDOFDATA   :

File: site 4_Spectrum 3.txt
#FORMAT      : EMSA/MAS Spectral Data File
#VERSION     : 1.0
#TITLE       : Spectrum 3
#DATE        : 07-APR-2022
#TIME        : 16:56
#OWNER       :
#NPOINTS     : 1024.0
#NCOLUMNS    : 1.0
#XUNITS      : keV
#YUNITS      : counts
#DATATYPE    : XY
#XPERCHAN    : 0.01
#OFFSET      : -0.1
#SIGNALTYPE  : EDS
#CHOFFSET    : 10.0
#LIVETIME    : 88.6073
#REALTIME    : 96.4781
#BEAMKV      : 10.0
#MAGCAM      : 1700.0
#XTILTSTGE   : 0.0
#AZIMANGLE   : 0.0
#ELEVANGLE   : 29.0
#XPOSITION mm: -5.2765
#YPOSITION mm: 4.4840
#ZPOSITION mm: 14.0000
##OXINSTPT   : 4
##OXINSTSTROB: 48.36
##OXINSTELEMS: 6,8,14,11,17,19
##OXINSTLABEL: 6, 0.277, C
##OXINSTLABEL: 8, 0.525, O
##OXINSTLABEL: 14, 1.740, Si
##OXINSTLABEL: 11, 1.041, Na
##OXINSTLABEL: 17, 2.622, Cl
##OXINSTLABEL: 17, 2.816, Cl
##OXINSTLABEL: 17, 0.181, Cl
##OXINSTLABEL: 19, 3.314, K
##OXINSTLABEL: 19, 3.590, K
##OXINSTLABEL: 19, 0.260, K
#SPECTRUM    : Spectral Data Starts Here
-0.10000, 0.0
-0.06000, 0.0
-0.02000, 47.0
0.02000, 1946.0
0.06000, 3764.0
0.10000, 512.0
0.14000, 333.0
0.18000, 368.0
0.22000, 851.0
0.26000, 3484.0
0.30000, 2220.0
0.34000, 477.0
0.38000, 605.0
0.42000, 960.0
0.46000, 4719.0
0.50000, 32686.0
0.54000, 37836.0
0.58000, 5041.0
0.62000, 529.0
0.66000, 540.0
0.70000, 619.0
0.74000, 579.0
0.78000, 586.0
0.82000, 615.0
0.86000, 656.0
0.90000, 643.0
0.94000, 634.0
0.98000, 700.0
1.02000, 909.0
1.06000, 902.0
1.10000, 721.0
1.14000, 614.0
1.18000, 627.0
1.22000, 658.0
1.26000, 614.0
1.30000, 563.0
1.34000, 606.0
1.38000, 579.0
1.42000, 646.0
1.46000, 791.0
1.50000, 882.0
1.54000, 716.0
1.58000, 622.0
1.62000, 708.0
1.66000, 2277.0
1.70000, 15367.0
1.74000, 32613.0
1.78000, 19796.0
1.82000, 4537.0
1.86000, 1443.0
1.90000, 600.0
1.94000, 327.0
1.98000, 318.0
2.02000, 330.0
2.06000, 300.0
2.10000, 317.0
2.14000, 290.0
2.18000, 294.0
2.22000, 337.0
2.26000, 354.0
2.30000, 333.0
2.34000, 296.0
2.38000, 246.0
2.42000, 259.0
2.46000, 255.0
2.50000, 239.0
2.54000, 237.0
2.58000, 309.0
2.62000, 401.0
2.66000, 339.0
2.70000, 222.0
2.74000, 200.0
2.78000, 229.0
2.82000, 215.0
2.86000, 212.0
2.90000, 205.0
2.94000, 190.0
2.98000, 194.0
3.02000, 173.0
3.06000, 198.0
3.10000, 174.0
3.14000, 164.0
3.18000, 147.0
3.22000, 173.0
3.26000, 191.0
3.30000, 203.0
3.34000, 195.0
3.38000, 178.0
3.42000, 165.0
3.46000, 183.0
3.50000, 187.0
3.54000, 169.0
3.58000, 165.0
3.62000, 142.0
3.66000, 147.0
3.70000, 149.0
3.74000, 122.0
3.78000, 132.0
3.82000, 127.0
3.86000, 134.0
3.90000, 125.0
3.94000, 123.0
3.98000, 118.0
4.02000, 126.0
4.06000, 110.0
4.10000, 119.0
4.14000, 97.0
4.18000, 115.0
4.22000, 102.0
4.26000, 96.0
4.30000, 109.0
4.34000, 98.0
4.38000, 91.0
4.42000, 91.0
4.46000, 86.0
4.50000, 104.0
4.54000, 89.0
4.58000, 82.0
4.62000, 87.0
4.66000, 77.0
4.70000, 87.0
4.74000, 69.0
4.78000, 78.0
4.82000, 79.0
4.86000, 78.0
4.90000, 87.0
4.94000, 86.0
4.98000, 77.0
5.02000, 81.0
5.06000, 67.0
5.10000, 74.0
5.14000, 59.0
5.18000, 80.0
5.22000, 60.0
5.26000, 72.0
5.30000, 65.0
5.34000, 56.0
5.38000, 61.0
5.42000, 61.0
5.46000, 49.0
5.50000, 61.0
5.54000, 59.0
5.58000, 52.0
5.62000, 64.0
5.66000, 63.0
5.70000, 54.0
5.74000, 53.0
5.78000, 44.0
5.82000, 53.0
5.86000, 57.0
5.90000, 45.0
5.94000, 54.0
5.98000, 50.0
6.02000, 41.0
6.06000, 40.0
6.10000, 42.0
6.14000, 46.0
6.18000, 41.0
6.22000, 44.0
6.26000, 42.0
6.30000, 43.0
6.34000, 49.0
6.38000, 51.0
6.42000, 45.0
6.46000, 38.0
6.50000, 40.0
6.54000, 28.0
6.58000, 34.0
6.62000, 24.0
6.66000, 33.0
6.70000, 32.0
6.74000, 29.0
6.78000, 37.0
6.82000, 32.0
6.86000, 28.0
6.90000, 25.0
6.94000, 28.0
6.98000, 33.0
7.02000, 29.0
7.06000, 25.0
7.10000, 24.0
7.14000, 26.0
7.18000, 28.0
7.22000, 29.0
7.26000, 21.0
7.30000, 24.0
7.34000, 23.0
7.38000, 19.0
7.42000, 22.0
7.46000, 20.0
7.50000, 19.0
7.54000, 19.0
7.58000, 21.0
7.62000, 17.0
7.66000, 22.0
7.70000, 14.0
7.74000, 19.0
7.78000, 16.0
7.82000, 14.0
7.86000, 17.0
7.90000, 18.0
7.94000, 13.0
7.98000, 14.0
8.02000, 18.0
8.06000, 5.0
8.10000, 17.0
8.14000, 13.0
8.18000, 14.0
8.22000, 8.0
8.26000, 13.0
8.30000, 11.0
8.34000, 15.0
8.38000, 6.0
8.42000, 14.0
8.46000, 10.0
8.50000, 12.0
8.54000, 7.0
8.58000, 6.0
8.62000, 7.0
8.66000, 8.0
8.70000, 6.0
8.74000, 6.0
8.78000, 5.0
8.82000, 6.0
8.86000, 6.0
8.90000, 3.0
8.94000, 5.0
8.98000, 3.0
9.02000, 4.0
9.06000, 2.0
9.10000, 1.0
9.14000, 2.0
9.18000, 2.0
9.22000, 2.0
9.26000, 3.0
9.30000, 0.0
9.34000, 0.0
9.38000, 0.0
9.42000, 1.0
9.46000, 0.0
9.50000, 0.0
9.54000, 0.0
9.58000, 0.0
9.62000, 0.0
9.66000, 0.0
9.70000, 0.0
9.74000, 0.0
9.78000, 0.0
9.82000, 0.0
9.86000, 0.0
9.90000, 0.0
9.94000, 0.0
9.98000, 1.0
10.02000, 0.0
10.06000, 0.0
10.10000, 0.0
10.13000, 0.0
#ENDOFDATA   :

File: site 4_Spectrum 4.txt
#FORMAT      : EMSA/MAS Spectral Data File
#VERSION     : 1.0
#TITLE       : Spectrum 4
#DATE        : 07-APR-2022
#TIME        : 16:58
#OWNER       :
#NPOINTS     : 1024.0
#NCOLUMNS    : 1.0
#XUNITS      : keV
#YUNITS      : counts
#DATATYPE    : XY
#XPERCHAN    : 0.01
#OFFSET      : -0.1
#SIGNALTYPE  : EDS
#CHOFFSET    : 10.0
#LIVETIME    : 101.149
#REALTIME    : 109.1
#BEAMKV      : 10.0
#MAGCAM      : 1700.0
#XTILTSTGE   : 0.0
#AZIMANGLE   : 0.0
#ELEVANGLE   : 29.0
#XPOSITION mm: -5.2765
#YPOSITION mm: 4.4840
#ZPOSITION mm: 14.0000
##OXINSTPT   : 4
##OXINSTSTROB: 48.42
##OXINSTELEMS: 6,8,13,14,11,17,19
##OXINSTLABEL: 6, 0.277, C
##OXINSTLABEL: 8, 0.525, O
##OXINSTLABEL: 13, 1.487, Al
##OXINSTLABEL: 14, 1.740, Si
##OXINSTLABEL: 11, 1.041, Na
##OXINSTLABEL: 17, 2.622, Cl
##OXINSTLABEL: 17, 2.816, Cl
##OXINSTLABEL: 17, 0.181, Cl
##OXINSTLABEL: 19, 3.314, K
##OXINSTLABEL: 19, 3.590, K
##OXINSTLABEL: 19, 0.260, K
#SPECTRUM    : Spectral Data Starts Here
-0.10000, 0.0
-0.06000, 1.0
-0.02000, 54.0
0.02000, 2338.0
0.06000, 4255.0
0.10000, 424.0
0.14000, 231.0
0.18000, 272.0
0.22000, 690.0
0.26000, 2914.0
0.30000, 1858.0
0.34000, 355.0
0.38000, 480.0
0.42000, 815.0
0.46000, 4101.0
0.50000, 29119.0
0.54000, 33159.0
0.58000, 4477.0
0.62000, 434.0
0.66000, 409.0
0.70000, 511.0
0.74000, 511.0
0.78000, 499.0
0.82000, 567.0
0.86000, 595.0
0.90000, 630.0
0.94000, 661.0
0.98000, 721.0
1.02000, 1089.0
1.06000, 1209.0
1.10000, 773.0
1.14000, 649.0
1.18000, 654.0
1.22000, 665.0
1.26000, 674.0
1.30000, 693.0
1.34000, 636.0
1.38000, 640.0
1.42000, 791.0
1.46000, 1598.0
1.50000, 1954.0
1.54000, 1159.0
1.58000, 762.0
1.62000, 709.0
1.66000, 2596.0
1.70000, 16387.0
1.74000, 35228.0
1.78000, 21357.0
1.82000, 4893.0
1.86000, 1523.0
1.90000, 600.0
1.94000, 390.0
1.98000, 350.0
2.02000, 338.0
2.06000, 328.0
2.10000, 297.0
2.14000, 317.0
2.18000, 299.0
2.22000, 338.0
2.26000, 381.0
2.30000, 364.0
2.34000, 310.0
2.38000, 278.0
2.42000, 283.0
2.46000, 278.0
2.50000, 287.0
2.54000, 303.0
2.58000, 345.0
2.62000, 440.0
2.66000, 369.0
2.70000, 288.0
2.74000, 221.0
2.78000, 267.0
2.82000, 253.0
2.86000, 251.0
2.90000, 213.0
2.94000, 244.0
2.98000, 203.0
3.02000, 196.0
3.06000, 184.0
3.10000, 187.0
3.14000, 213.0
3.18000, 188.0
3.22000, 220.0
3.26000, 233.0
3.30000, 280.0
3.34000, 317.0
3.38000, 233.0
3.42000, 206.0
3.46000, 199.0
3.50000, 213.0
3.54000, 191.0
3.58000, 188.0
3.62000, 194.0
3.66000, 196.0
3.70000, 182.0
3.74000, 159.0
3.78000, 147.0
3.82000, 148.0
3.86000, 149.0
3.90000, 153.0
3.94000, 133.0
3.98000, 153.0
4.02000, 127.0
4.06000, 125.0
4.10000, 140.0
4.14000, 123.0
4.18000, 119.0
4.22000, 131.0
4.26000, 104.0
4.30000, 102.0
4.34000, 118.0
4.38000, 116.0
4.42000, 119.0
4.46000, 109.0
4.50000, 100.0
4.54000, 113.0
4.58000, 101.0
4.62000, 104.0
4.66000, 99.0
4.70000, 91.0
4.74000, 90.0
4.78000, 77.0
4.82000, 101.0
4.86000, 81.0
4.90000, 76.0
4.94000, 81.0
4.98000, 86.0
5.02000, 79.0
5.06000, 73.0
5.10000, 83.0
5.14000, 72.0
5.18000, 74.0
5.22000, 80.0
5.26000, 70.0
5.30000, 73.0
5.34000, 77.0
5.38000, 82.0
5.42000, 68.0
5.46000, 73.0
5.50000, 63.0
5.54000, 54.0
5.58000, 65.0
5.62000, 69.0
5.66000, 62.0
5.70000, 58.0
5.74000, 60.0
5.78000, 48.0
5.82000, 52.0
5.86000, 52.0
5.90000, 56.0
5.94000, 59.0
5.98000, 60.0
6.02000, 66.0
6.06000, 45.0
6.10000, 51.0
6.14000, 53.0
6.18000, 49.0
6.22000, 48.0
6.26000, 38.0
6.30000, 47.0
6.34000, 51.0
6.38000, 50.0
6.42000, 42.0
6.46000, 47.0
6.50000, 41.0
6.54000, 38.0
6.58000, 35.0
6.62000, 44.0
6.66000, 42.0
6.70000, 28.0
6.74000, 31.0
6.78000, 31.0
6.82000, 37.0
6.86000, 31.0
6.90000, 37.0
6.94000, 30.0
6.98000, 28.0
7.02000, 20.0
7.06000, 26.0
7.10000, 30.0
7.14000, 27.0
7.18000, 33.0
7.22000, 33.0
7.26000, 21.0
7.30000, 29.0
7.34000, 27.0
7.38000, 21.0
7.42000, 27.0
7.46000, 16.0
7.50000, 23.0
7.54000, 23.0
7.58000, 23.0
7.62000, 14.0
7.66000, 23.0
7.70000, 18.0
7.74000, 18.0
7.78000, 18.0
7.82000, 17.0
7.86000, 18.0
7.90000, 16.0
7.94000, 21.0
7.98000, 12.0
8.02000, 15.0
8.06000, 21.0
8.10000, 15.0
8.14000, 11.0
8.18000, 13.0
8.22000, 17.0
8.26000, 12.0
8.30000, 13.0
8.34000, 15.0
8.38000, 8.0
8.42000, 7.0
8.46000, 8.0
8.50000, 15.0
8.54000, 9.0
8.58000, 8.0
8.62000, 9.0
8.66000, 7.0
8.70000, 4.0
8.74000, 8.0
8.78000, 7.0
8.82000, 7.0
8.86000, 12.0
8.90000, 6.0
8.94000, 7.0
8.98000, 3.0
9.02000, 3.0
9.06000, 4.0
9.10000, 2.0
9.14000, 6.0
9.18000, 3.0
9.22000, 2.0
9.26000, 3.0
9.30000, 0.0
9.34000, 2.0
9.38000, 2.0
9.42000, 0.0
9.46000, 0.0
9.50000, 0.0
9.54000, 0.0
9.58000, 0.0
9.62000, 0.0
9.66000, 0.0
9.70000, 0.0
9.74000, 0.0
9.78000, 0.0
9.82000, 0.0
9.86000, 1.0
9.90000, 0.0
9.94000, 0.0
9.98000, 0.0
10.02000, 0.0
10.06000, 1.0
10.10000, 0.0
10.13000, 0.0
#ENDOFDATA   :