Folder: cordon-caulle-ash-vents/data/EDX_reports (part 2)

File: site 4_Spectrum 5.txt
#FORMAT      : EMSA/MAS Spectral Data File
#VERSION     : 1.0
#TITLE       : Spectrum 5
#DATE        : 07-APR-2022
#TIME        : 17:00
#OWNER       :
#NPOINTS     : 1024.0
#NCOLUMNS    : 1.0
#XUNITS      : keV
#YUNITS      : counts
#DATATYPE    : XY
#XPERCHAN    : 0.01
#OFFSET      : -0.1
#SIGNALTYPE  : EDS
#CHOFFSET    : 10.0
#LIVETIME    : 111.317
#REALTIME    : 119.512
#BEAMKV      : 10.0
#MAGCAM      : 1700.0
#XTILTSTGE   : 0.0
#AZIMANGLE   : 0.0
#ELEVANGLE   : 29.0
#XPOSITION mm: -5.2765
#YPOSITION mm: 4.4840
#ZPOSITION mm: 14.0000
##OXINSTPT   : 4
##OXINSTSTROB: 48.44
##OXINSTELEMS: 6,8,13,14,11,17,19,20,12
##OXINSTLABEL: 6, 0.277, C
##OXINSTLABEL: 8, 0.525, O
##OXINSTLABEL: 13, 1.487, Al
##OXINSTLABEL: 14, 1.740, Si
##OXINSTLABEL: 11, 1.041, Na
##OXINSTLABEL: 17, 2.622, Cl
##OXINSTLABEL: 17, 2.816, Cl
##OXINSTLABEL: 17, 0.181, Cl
##OXINSTLABEL: 19, 3.314, K
##OXINSTLABEL: 19, 3.590, K
##OXINSTLABEL: 19, 0.260, K
##OXINSTLABEL: 20, 3.692, Ca
##OXINSTLABEL: 20, 4.013, Ca
##OXINSTLABEL: 20, 0.341, Ca
##OXINSTLABEL: 20, 0.303, Ca
##OXINSTLABEL: 12, 1.254, Mg
#SPECTRUM    : Spectral Data Starts Here
-0.10000, 0.0
-0.06000, 0.0
-0.02000, 58.0
0.02000, 2491.0
0.06000, 4706.0
0.10000, 436.0
0.14000, 237.0
0.18000, 265.0
0.22000, 887.0
0.26000, 4137.0
0.30000, 2738.0
0.34000, 380.0
0.38000, 409.0
0.42000, 733.0
0.46000, 3682.0
0.50000, 25934.0
0.54000, 29896.0
0.58000, 3998.0
0.62000, 337.0
0.66000, 386.0
0.70000, 486.0
0.74000, 495.0
0.78000, 480.0
0.82000, 522.0
0.86000, 559.0
0.90000, 547.0
0.94000, 627.0
0.98000, 690.0
1.02000, 1068.0
1.06000, 1129.0
1.10000, 776.0
1.14000, 649.0
1.18000, 651.0
1.22000, 826.0
1.26000, 957.0
1.30000, 820.0
1.34000, 677.0
1.38000, 630.0
1.42000, 809.0
1.46000, 1558.0
1.50000, 1866.0
1.54000, 1133.0
1.58000, 823.0
1.62000, 777.0
1.66000, 2704.0
1.70000, 17145.0
1.74000, 36709.0
1.78000, 22197.0
1.82000, 5053.0
1.86000, 1581.0
1.90000, 651.0
1.94000, 407.0
1.98000, 358.0
2.02000, 377.0
2.06000, 327.0
2.10000, 354.0
2.14000, 329.0
2.18000, 322.0
2.22000, 346.0
2.26000, 411.0
2.30000, 419.0
2.34000, 358.0
2.38000, 325.0
2.42000, 280.0
2.46000, 288.0
2.50000, 291.0
2.54000, 313.0
2.58000, 366.0
2.62000, 471.0
2.66000, 436.0
2.70000, 323.0
2.74000, 272.0
2.78000, 274.0
2.82000, 273.0
2.86000, 270.0
2.90000, 257.0
2.94000, 264.0
2.98000, 219.0
3.02000, 232.0
3.06000, 230.0
3.10000, 241.0
3.14000, 226.0
3.18000, 216.0
3.22000, 215.0
3.26000, 248.0
3.30000, 258.0
3.34000, 272.0
3.38000, 205.0
3.42000, 200.0
3.46000, 212.0
3.50000, 240.0
3.54000, 185.0
3.58000, 197.0
3.62000, 209.0
3.66000, 275.0
3.70000, 304.0
3.74000, 235.0
3.78000, 190.0
3.82000, 156.0
3.86000, 156.0
3.90000, 157.0
3.94000, 153.0
3.98000, 148.0
4.02000, 164.0
4.06000, 164.0
4.10000, 140.0
4.14000, 148.0
4.18000, 130.0
4.22000, 140.0
4.26000, 133.0
4.30000, 145.0
4.34000, 124.0
4.38000, 107.0
4.42000, 118.0
4.46000, 128.0
4.50000, 118.0
4.54000, 134.0
4.58000, 108.0
4.62000, 118.0
4.66000, 106.0
4.70000, 111.0
4.74000, 96.0
4.78000, 93.0
4.82000, 96.0
4.86000, 87.0
4.90000, 97.0
4.94000, 93.0
4.98000, 98.0
5.02000, 83.0
5.06000, 96.0
5.10000, 94.0
5.14000, 97.0
5.18000, 81.0
5.22000, 71.0
5.26000, 79.0
5.30000, 79.0
5.34000, 81.0
5.38000, 69.0
5.42000, 85.0
5.46000, 77.0
5.50000, 78.0
5.54000, 71.0
5.58000, 69.0
5.62000, 55.0
5.66000, 64.0
5.70000, 74.0
5.74000, 70.0
5.78000, 59.0
5.82000, 62.0
5.86000, 59.0
5.90000, 55.0
5.94000, 57.0
5.98000, 66.0
6.02000, 49.0
6.06000, 61.0
6.10000, 45.0
6.14000, 54.0
6.18000, 61.0
6.22000, 60.0
6.26000, 49.0
6.30000, 47.0
6.34000, 54.0
6.38000, 46.0
6.42000, 49.0
6.46000, 34.0
6.50000, 48.0
6.54000, 41.0
6.58000, 47.0
6.62000, 46.0
6.66000, 39.0
6.70000, 39.0
6.74000, 37.0
6.78000, 36.0
6.82000, 35.0
6.86000, 27.0
6.90000, 41.0
6.94000, 36.0
6.98000, 31.0
7.02000, 44.0
7.06000, 38.0
7.10000, 27.0
7.14000, 26.0
7.18000, 28.0
7.22000, 37.0
7.26000, 28.0
7.30000, 33.0
7.34000, 24.0
7.38000, 23.0
7.42000, 34.0
7.46000, 29.0
7.50000, 21.0
7.54000, 24.0
7.58000, 30.0
7.62000, 20.0
7.66000, 22.0
7.70000, 20.0
7.74000, 20.0
7.78000, 19.0
7.82000, 22.0
7.86000, 24.0
7.90000, 15.0
7.94000, 12.0
7.98000, 18.0
8.02000, 10.0
8.06000, 11.0
8.10000, 19.0
8.14000, 13.0
8.18000, 11.0
8.22000, 16.0
8.26000, 14.0
8.30000, 19.0
8.34000, 12.0
8.38000, 16.0
8.42000, 13.0
8.46000, 9.0
8.50000, 13.0
8.54000, 9.0
8.58000, 9.0
8.62000, 10.0
8.66000, 5.0
8.70000, 7.0
8.74000, 11.0
8.78000, 7.0
8.82000, 6.0
8.86000, 9.0
8.90000, 8.0
8.94000, 6.0
8.98000, 5.0
9.02000, 4.0
9.06000, 6.0
9.10000, 2.0
9.14000, 5.0
9.18000, 1.0
9.22000, 4.0
9.26000, 1.0
9.30000, 2.0
9.34000, 1.0
9.38000, 1.0
9.42000, 0.0
9.46000, 0.0
9.50000, 0.0
9.54000, 0.0
9.58000, 0.0
9.62000, 0.0
9.66000, 0.0
9.70000, 1.0
9.74000, 0.0
9.78000, 1.0
9.82000, 0.0
9.86000, 0.0
9.90000, 0.0
9.94000, 0.0
9.98000, 0.0
10.02000, 0.0
10.06000, 0.0
10.10000, 0.0
10.13000, 0.0
#ENDOFDATA   :

File: site 4_Spectrum 6.txt
#FORMAT      : EMSA/MAS Spectral Data File
#VERSION     : 1.0
#TITLE       : Spectrum 6
#DATE        : 07-APR-2022
#TIME        : 17:02
#OWNER       :
#NPOINTS     : 1024.0
#NCOLUMNS    : 1.0
#XUNITS      : keV
#YUNITS      : counts
#DATATYPE    : XY
#XPERCHAN    : 0.01
#OFFSET      : -0.1
#SIGNALTYPE  : EDS
#CHOFFSET    : 10.0
#LIVETIME    : 102.031
#REALTIME    : 110.023
#BEAMKV      : 10.0
#MAGCAM      : 1700.0
#XTILTSTGE   : 0.0
#AZIMANGLE   : 0.0
#ELEVANGLE   : 29.0
#XPOSITION mm: -5.2765
#YPOSITION mm: 4.4840
#ZPOSITION mm: 14.0000
##OXINSTPT   : 4
##OXINSTSTROB: 48.40
##OXINSTELEMS: 6,8,11,13,14,19,17,26,20
##OXINSTLABEL: 6, 0.277, C
##OXINSTLABEL: 8, 0.525, O
##OXINSTLABEL: 11, 1.041, Na
##OXINSTLABEL: 13, 1.487, Al
##OXINSTLABEL: 14, 1.740, Si
##OXINSTLABEL: 19, 3.314, K
##OXINSTLABEL: 19, 3.590, K
##OXINSTLABEL: 19, 0.260, K
##OXINSTLABEL: 17, 2.622, Cl
##OXINSTLABEL: 17, 2.816, Cl
##OXINSTLABEL: 17, 0.181, Cl
##OXINSTLABEL: 26, 6.404, Fe
##OXINSTLABEL: 26, 7.058, Fe
##OXINSTLABEL: 26, 0.703, Fe
##OXINSTLABEL: 26, 0.615, Fe
##OXINSTLABEL: 20, 3.692, Ca
##OXINSTLABEL: 20, 4.013, Ca
##OXINSTLABEL: 20, 0.341, Ca
##OXINSTLABEL: 20, 0.303, Ca
#SPECTRUM    : Spectral Data Starts Here
-0.10000, 0.0
-0.06000, 1.0
-0.02000, 50.0
0.02000, 2263.0
0.06000, 4334.0
0.10000, 449.0
0.14000, 233.0
0.18000, 279.0
0.22000, 658.0
0.26000, 2908.0
0.30000, 1906.0
0.34000, 376.0
0.38000, 511.0
0.42000, 852.0
0.46000, 4073.0
0.50000, 28915.0
0.54000, 33383.0
0.58000, 4542.0
0.62000, 470.0
0.66000, 490.0
0.70000, 665.0
0.74000, 632.0
0.78000, 547.0
0.82000, 552.0
0.86000, 571.0
0.90000, 600.0
0.94000, 664.0
0.98000, 798.0
1.02000, 1442.0
1.06000, 1632.0
1.10000, 885.0
1.14000, 641.0
1.18000, 669.0
1.22000, 674.0
1.26000, 701.0
1.30000, 678.0
1.34000, 638.0
1.38000, 660.0
1.42000, 902.0
1.46000, 2209.0
1.50000, 2999.0
1.54000, 1571.0
1.58000, 822.0
1.62000, 676.0
1.66000, 2450.0
1.70000, 15433.0
1.74000, 32987.0
1.78000, 19995.0
1.82000, 4706.0
1.86000, 1458.0
1.90000, 666.0
1.94000, 367.0
1.98000, 345.0
2.02000, 365.0
2.06000, 370.0
2.10000, 315.0
2.14000, 316.0
2.18000, 329.0
2.22000, 342.0
2.26000, 367.0
2.30000, 331.0
2.34000, 332.0
2.38000, 302.0
2.42000, 274.0
2.46000, 284.0
2.50000, 268.0
2.54000, 274.0
2.58000, 345.0
2.62000, 424.0
2.66000, 360.0
2.70000, 302.0
2.74000, 256.0
2.78000, 233.0
2.82000, 261.0
2.86000, 233.0
2.90000, 230.0
2.94000, 238.0
2.98000, 225.0
3.02000, 233.0
3.06000, 213.0
3.10000, 231.0
3.14000, 215.0
3.18000, 223.0
3.22000, 215.0
3.26000, 316.0
3.30000, 426.0
3.34000, 433.0
3.38000, 288.0
3.42000, 207.0
3.46000, 207.0
3.50000, 204.0
3.54000, 212.0
3.58000, 193.0
3.62000, 224.0
3.66000, 233.0
3.70000, 223.0
3.74000, 183.0
3.78000, 166.0
3.82000, 156.0
3.86000, 146.0
3.90000, 141.0
3.94000, 157.0
3.98000, 147.0
4.02000, 150.0
4.06000, 141.0
4.10000, 140.0
4.14000, 123.0
4.18000, 122.0
4.22000, 126.0
4.26000, 107.0
4.30000, 102.0
4.34000, 124.0
4.38000, 135.0
4.42000, 102.0
4.46000, 126.0
4.50000, 117.0
4.54000, 115.0
4.58000, 101.0
4.62000, 106.0
4.66000, 103.0
4.70000, 93.0
4.74000, 112.0
4.78000, 123.0
4.82000, 96.0
4.86000, 105.0
4.90000, 82.0
4.94000, 92.0
4.98000, 84.0
5.02000, 82.0
5.06000, 84.0
5.10000, 79.0
5.14000, 84.0
5.18000, 69.0
5.22000, 88.0
5.26000, 73.0
5.30000, 70.0
5.34000, 84.0
5.38000, 67.0
5.42000, 72.0
5.46000, 61.0
5.50000, 68.0
5.54000, 74.0
5.58000, 74.0
5.62000, 72.0
5.66000, 75.0
5.70000, 62.0
5.74000, 71.0
5.78000, 55.0
5.82000, 56.0
5.86000, 55.0
5.90000, 55.0
5.94000, 63.0
5.98000, 56.0
6.02000, 58.0
6.06000, 53.0
6.10000, 52.0
6.14000, 50.0
6.18000, 52.0
6.22000, 51.0
6.26000, 45.0
6.30000, 53.0
6.34000, 64.0
6.38000, 58.0
6.42000, 63.0
6.46000, 52.0
6.50000, 46.0
6.54000, 38.0
6.58000, 39.0
6.62000, 47.0
6.66000, 35.0
6.70000, 43.0
6.74000, 41.0
6.78000, 41.0
6.82000, 36.0
6.86000, 42.0
6.90000, 33.0
6.94000, 33.0
6.98000, 33.0
7.02000, 37.0
7.06000, 37.0
7.10000, 27.0
7.14000, 36.0
7.18000, 32.0
7.22000, 32.0
7.26000, 24.0
7.30000, 33.0
7.34000, 22.0
7.38000, 23.0
7.42000, 23.0
7.46000, 23.0
7.50000, 24.0
7.54000, 19.0
7.58000, 29.0
7.62000, 26.0
7.66000, 19.0
7.70000, 17.0
7.74000, 21.0
7.78000, 24.0
7.82000, 22.0
7.86000, 14.0
7.90000, 15.0
7.94000, 19.0
7.98000, 12.0
8.02000, 17.0
8.06000, 14.0
8.10000, 15.0
8.14000, 15.0
8.18000, 13.0
8.22000, 13.0
8.26000, 14.0
8.30000, 16.0
8.34000, 17.0
8.38000, 10.0
8.42000, 9.0
8.46000, 8.0
8.50000, 8.0
8.54000, 10.0
8.58000, 9.0
8.62000, 8.0
8.66000, 13.0
8.70000, 7.0
8.74000, 9.0
8.78000, 9.0
8.82000, 5.0
8.86000, 5.0
8.90000, 7.0
8.94000, 7.0
8.98000, 7.0
9.02000, 4.0
9.06000, 3.0
9.10000, 3.0
9.14000, 2.0
9.18000, 4.0
9.22000, 1.0
9.26000, 0.0
9.30000, 3.0
9.34000, 1.0
9.38000, 2.0
9.42000, 1.0
9.46000, 0.0
9.50000, 0.0
9.54000, 0.0
9.58000, 0.0
9.62000, 0.0
9.66000, 0.0
9.70000, 0.0
9.74000, 0.0
9.78000, 0.0
9.82000, 0.0
9.86000, 0.0
9.90000, 0.0
9.94000, 0.0
9.98000, 0.0
10.02000, 0.0
10.06000, 0.0
10.10000, 0.0
10.13000, 0.0
#ENDOFDATA   :

File: site 4_Spectrum 7.txt
#FORMAT      : EMSA/MAS Spectral Data File
#VERSION     : 1.0
#TITLE       : Spectrum 7
#DATE        : 07-APR-2022
#TIME        : 17:04
#OWNER       :
#NPOINTS     : 1024.0
#NCOLUMNS    : 1.0
#XUNITS      : keV
#YUNITS      : counts
#DATATYPE    : XY
#XPERCHAN    : 0.01
#OFFSET      : -0.1
#SIGNALTYPE  : EDS
#CHOFFSET    : 10.0
#LIVETIME    : 115.211
#REALTIME    : 123.486
#BEAMKV      : 10.0
#MAGCAM      : 1700.0
#XTILTSTGE   : 0.0
#AZIMANGLE   : 0.0
#ELEVANGLE   : 29.0
#XPOSITION mm: -5.2765
#YPOSITION mm: 4.4840
#ZPOSITION mm: 14.0000
##OXINSTPT   : 4
##OXINSTSTROB: 48.45
##OXINSTELEMS: 6,8,13,14,11,17,19,20,26
##OXINSTLABEL: 6, 0.277, C
##OXINSTLABEL: 8, 0.525, O
##OXINSTLABEL: 13, 1.487, Al
##OXINSTLABEL: 14, 1.740, Si
##OXINSTLABEL: 11, 1.041, Na
##OXINSTLABEL: 17, 2.622, Cl
##OXINSTLABEL: 17, 2.816, Cl
##OXINSTLABEL: 17, 0.181, Cl
##OXINSTLABEL: 19, 3.314, K
##OXINSTLABEL: 19, 3.590, K
##OXINSTLABEL: 19, 0.260, K
##OXINSTLABEL: 20, 3.692, Ca
##OXINSTLABEL: 20, 4.013, Ca
##OXINSTLABEL: 20, 0.341, Ca
##OXINSTLABEL: 20, 0.303, Ca
##OXINSTLABEL: 26, 6.404, Fe
##OXINSTLABEL: 26, 7.058, Fe
##OXINSTLABEL: 26, 0.703, Fe
##OXINSTLABEL: 26, 0.615, Fe
#SPECTRUM    : Spectral Data Starts Here
-0.10000, 0.0
-0.06000, 0.0
-0.02000, 63.0
0.02000, 2654.0
0.06000, 4953.0
0.10000, 436.0
0.14000, 252.0
0.18000, 282.0
0.22000, 897.0
0.26000, 3787.0
0.30000, 2407.0
0.34000, 411.0
0.38000, 497.0
0.42000, 802.0
0.46000, 3843.0
0.50000, 27001.0
0.54000, 30373.0
0.58000, 4194.0
0.62000, 474.0
0.66000, 518.0
0.70000, 657.0
0.74000, 592.0
0.78000, 576.0
0.82000, 586.0
0.86000, 610.0
0.90000, 646.0
0.94000, 696.0
0.98000, 779.0
1.02000, 1205.0
1.06000, 1318.0
1.10000, 821.0
1.14000, 706.0
1.18000, 670.0
1.22000, 746.0
1.26000, 757.0
1.30000, 746.0
1.34000, 696.0
1.38000, 648.0
1.42000, 879.0
1.46000, 1792.0
1.50000, 2332.0
1.54000, 1291.0
1.58000, 809.0
1.62000, 742.0
1.66000, 2496.0
1.70000, 16178.0
1.74000, 34356.0
1.78000, 20803.0
1.82000, 4800.0
1.86000, 1540.0
1.90000, 680.0
1.94000, 414.0
1.98000, 413.0
2.02000, 413.0
2.06000, 360.0
2.10000, 345.0
2.14000, 335.0
2.18000, 350.0
2.22000, 363.0
2.26000, 387.0
2.30000, 382.0
2.34000, 365.0
2.38000, 306.0
2.42000, 301.0
2.46000, 304.0
2.50000, 318.0
2.54000, 324.0
2.58000, 380.0
2.62000, 517.0
2.66000, 446.0
2.70000, 307.0
2.74000, 278.0
2.78000, 269.0
2.82000, 271.0
2.86000, 274.0
2.90000, 263.0
2.94000, 235.0
2.98000, 248.0
3.02000, 234.0
3.06000, 216.0
3.10000, 222.0
3.14000, 223.0
3.18000, 221.0
3.22000, 249.0
3.26000, 312.0
3.30000, 442.0
3.34000, 450.0
3.38000, 319.0
3.42000, 244.0
3.46000, 210.0
3.50000, 213.0
3.54000, 221.0
3.58000, 232.0
3.62000, 293.0
3.66000, 374.0
3.70000, 470.0
3.74000, 345.0
3.78000, 210.0
3.82000, 168.0
3.86000, 152.0
3.90000, 162.0
3.94000, 150.0
3.98000, 169.0
4.02000, 174.0
4.06000, 183.0
4.10000, 162.0
4.14000, 139.0
4.18000, 161.0
4.22000, 134.0
4.26000, 124.0
4.30000, 129.0
4.34000, 125.0
4.38000, 114.0
4.42000, 122.0
4.46000, 130.0
4.50000, 109.0
4.54000, 120.0
4.58000, 118.0
4.62000, 110.0
4.66000, 116.0
4.70000, 105.0
4.74000, 107.0
4.78000, 102.0
4.82000, 104.0
4.86000, 100.0
4.90000, 101.0
4.94000, 92.0
4.98000, 90.0
5.02000, 87.0
5.06000, 93.0
5.10000, 97.0
5.14000, 88.0
5.18000, 79.0
5.22000, 95.0
5.26000, 70.0
5.30000, 76.0
5.34000, 75.0
5.38000, 69.0
5.42000, 72.0
5.46000, 68.0
5.50000, 64.0
5.54000, 77.0
5.58000, 69.0
5.62000, 73.0
5.66000, 67.0
5.70000, 85.0
5.74000, 71.0
5.78000, 68.0
5.82000, 54.0
5.86000, 71.0
5.90000, 67.0
5.94000, 62.0
5.98000, 65.0
6.02000, 50.0
6.06000, 59.0
6.10000, 61.0
6.14000, 54.0
6.18000, 59.0
6.22000, 52.0
6.26000, 47.0
6.30000, 46.0
6.34000, 66.0
6.38000, 73.0
6.42000, 68.0
6.46000, 75.0
6.50000, 48.0
6.54000, 49.0
6.58000, 45.0
6.62000, 46.0
6.66000, 41.0
6.70000, 40.0
6.74000, 47.0
6.78000, 41.0
6.82000, 36.0
6.86000, 32.0
6.90000, 32.0
6.94000, 30.0
6.98000, 43.0
7.02000, 39.0
7.06000, 36.0
7.10000, 41.0
7.14000, 37.0
7.18000, 33.0
7.22000, 29.0
7.26000, 30.0
7.30000, 23.0
7.34000, 18.0
7.38000, 27.0
7.42000, 27.0
7.46000, 34.0
7.50000, 21.0
7.54000, 30.0
7.58000, 23.0
7.62000, 20.0
7.66000, 20.0
7.70000, 21.0
7.74000, 29.0
7.78000, 19.0
7.82000, 18.0
7.86000, 26.0
7.90000, 21.0
7.94000, 22.0
7.98000, 15.0
8.02000, 19.0
8.06000, 15.0
8.10000, 12.0
8.14000, 15.0
8.18000, 18.0
8.22000, 12.0
8.26000, 17.0
8.30000, 16.0
8.34000, 10.0
8.38000, 12.0
8.42000, 12.0
8.46000, 12.0
8.50000, 7.0
8.54000, 14.0
8.58000, 13.0
8.62000, 11.0
8.66000, 10.0
8.70000, 9.0
8.74000, 8.0
8.78000, 10.0
8.82000, 5.0
8.86000, 4.0
8.90000, 7.0
8.94000, 10.0
8.98000, 8.0
9.02000, 4.0
9.06000, 2.0
9.10000, 2.0
9.14000, 4.0
9.18000, 5.0
9.22000, 2.0
9.26000, 3.0
9.30000, 2.0
9.34000, 1.0
9.38000, 1.0
9.42000, 1.0
9.46000, 1.0
9.50000, 1.0
9.54000, 0.0
9.58000, 0.0
9.62000, 0.0
9.66000, 0.0
9.70000, 0.0
9.74000, 1.0
9.78000, 0.0
9.82000, 0.0
9.86000, 0.0
9.90000, 0.0
9.94000, 0.0
9.98000, 0.0
10.02000, 0.0
10.06000, 0.0
10.10000, 0.0
10.13000, 0.0
#ENDOFDATA   :

File: site 4_Spectrum 8.txt
#FORMAT      : EMSA/MAS Spectral Data File
#VERSION     : 1.0
#TITLE       : Spectrum 8
#DATE        : 07-APR-2022
#TIME        : 17:06
#OWNER       :
#NPOINTS     : 1024.0
#NCOLUMNS    : 1.0
#XUNITS      : keV
#YUNITS      : counts
#DATATYPE    : XY
#XPERCHAN    : 0.01
#OFFSET      : -0.1
#SIGNALTYPE  : EDS
#CHOFFSET    : 10.0
#LIVETIME    : 98.2888
#REALTIME    : 106.294
#BEAMKV      : 10.0
#MAGCAM      : 1700.0
#XTILTSTGE   : 0.0
#AZIMANGLE   : 0.0
#ELEVANGLE   : 29.0
#XPOSITION mm: -5.2765
#YPOSITION mm: 4.4840
#ZPOSITION mm: 14.0000
##OXINSTPT   : 4
##OXINSTSTROB: 48.44
##OXINSTELEMS: 6,8,13,14,11,20,17,19,26
##OXINSTLABEL: 6, 0.277, C
##OXINSTLABEL: 8, 0.525, O
##OXINSTLABEL: 13, 1.487, Al
##OXINSTLABEL: 14, 1.740, Si
##OXINSTLABEL: 11, 1.041, Na
##OXINSTLABEL: 20, 3.692, Ca
##OXINSTLABEL: 20, 4.013, Ca
##OXINSTLABEL: 20, 0.341, Ca
##OXINSTLABEL: 20, 0.303, Ca
##OXINSTLABEL: 17, 2.622, Cl
##OXINSTLABEL: 17, 2.816, Cl
##OXINSTLABEL: 17, 0.181, Cl
##OXINSTLABEL: 19, 3.314, K
##OXINSTLABEL: 19, 3.590, K
##OXINSTLABEL: 19, 0.260, K
##OXINSTLABEL: 26, 6.404, Fe
##OXINSTLABEL: 26, 7.058, Fe
##OXINSTLABEL: 26, 0.703, Fe
##OXINSTLABEL: 26, 0.615, Fe
#SPECTRUM    : Spectral Data Starts Here
-0.10000, 0.0
-0.06000, 0.0
-0.02000, 54.0
0.02000, 2182.0
0.06000, 4149.0
0.10000, 421.0
0.14000, 295.0
0.18000, 314.0
0.22000, 1046.0
0.26000, 4838.0
0.30000, 3107.0
0.34000, 534.0
0.38000, 654.0
0.42000, 937.0
0.46000, 4211.0
0.50000, 29152.0
0.54000, 33281.0
0.58000, 4594.0
0.62000, 528.0
0.66000, 565.0
0.70000, 743.0
0.74000, 649.0
0.78000, 621.0
0.82000, 635.0
0.86000, 662.0
0.90000, 686.0
0.94000, 746.0
0.98000, 990.0
1.02000, 2452.0
1.06000, 2727.0
1.10000, 1049.0
1.14000, 688.0
1.18000, 663.0
1.22000, 657.0
1.26000, 703.0
1.30000, 668.0
1.34000, 681.0
1.38000, 647.0
1.42000, 1031.0
1.46000, 3258.0
1.50000, 4360.0
1.54000, 2047.0
1.58000, 831.0
1.62000, 679.0
1.66000, 2218.0
1.70000, 13293.0
1.74000, 28742.0
1.78000, 17440.0
1.82000, 4030.0
1.86000, 1325.0
1.90000, 581.0
1.94000, 352.0
1.98000, 383.0
2.02000, 424.0
2.06000, 358.0
2.10000, 332.0
2.14000, 333.0
2.18000, 308.0
2.22000, 317.0
2.26000, 382.0
2.30000, 396.0
2.34000, 344.0
2.38000, 265.0
2.42000, 280.0
2.46000, 255.0
2.50000, 266.0
2.54000, 257.0
2.58000, 346.0
2.62000, 420.0
2.66000, 352.0
2.70000, 285.0
2.74000, 236.0
2.78000, 255.0
2.82000, 228.0
2.86000, 229.0
2.90000, 222.0
2.94000, 206.0
2.98000, 229.0
3.02000, 197.0
3.06000, 211.0
3.10000, 194.0
3.14000, 185.0
3.18000, 180.0
3.22000, 191.0
3.26000, 254.0
3.30000, 304.0
3.34000, 284.0
3.38000, 224.0
3.42000, 187.0
3.46000, 171.0
3.50000, 160.0
3.54000, 178.0
3.58000, 188.0
3.62000, 249.0
3.66000, 335.0
3.70000, 404.0
3.74000, 305.0
3.78000, 205.0
3.82000, 150.0
3.86000, 137.0
3.90000, 139.0
3.94000, 135.0
3.98000, 143.0
4.02000, 166.0
4.06000, 164.0
4.10000, 125.0
4.14000, 116.0
4.18000, 118.0
4.22000, 97.0
4.26000, 110.0
4.30000, 113.0
4.34000, 111.0
4.38000, 120.0
4.42000, 103.0
4.46000, 111.0
4.50000, 108.0
4.54000, 96.0
4.58000, 94.0
4.62000, 81.0
4.66000, 93.0
4.70000, 95.0
4.74000, 92.0
4.78000, 84.0
4.82000, 98.0
4.86000, 81.0
4.90000, 95.0
4.94000, 80.0
4.98000, 80.0
5.02000, 84.0
5.06000, 84.0
5.10000, 82.0
5.14000, 82.0
5.18000, 74.0
5.22000, 70.0
5.26000, 68.0
5.30000, 60.0
5.34000, 65.0
5.38000, 59.0
5.42000, 77.0
5.46000, 76.0
5.50000, 63.0
5.54000, 70.0
5.58000, 64.0
5.62000, 72.0
5.66000, 60.0
5.70000, 49.0
5.74000, 60.0
5.78000, 67.0
5.82000, 54.0
5.86000, 59.0
5.90000, 63.0
5.94000, 55.0
5.98000, 57.0
6.02000, 43.0
6.06000, 49.0
6.10000, 59.0
6.14000, 45.0
6.18000, 38.0
6.22000, 39.0
6.26000, 50.0
6.30000, 37.0
6.34000, 57.0
6.38000, 70.0
6.42000, 66.0
6.46000, 48.0
6.50000, 38.0
6.54000, 41.0
6.58000, 40.0
6.62000, 37.0
6.66000, 33.0
6.70000, 30.0
6.74000, 43.0
6.78000, 38.0
6.82000, 43.0
6.86000, 32.0
6.90000, 31.0
6.94000, 33.0
6.98000, 37.0
7.02000, 33.0
7.06000, 35.0
7.10000, 29.0
7.14000, 26.0
7.18000, 26.0
7.22000, 23.0
7.26000, 27.0
7.30000, 24.0
7.34000, 22.0
7.38000, 28.0
7.42000, 18.0
7.46000, 20.0
7.50000, 22.0
7.54000, 23.0
7.58000, 25.0
7.62000, 26.0
7.66000, 18.0
7.70000, 25.0
7.74000, 12.0
7.78000, 15.0
7.82000, 24.0
7.86000, 20.0
7.90000, 21.0
7.94000, 14.0
7.98000, 15.0
8.02000, 13.0
8.06000, 16.0
8.10000, 19.0
8.14000, 15.0
8.18000, 17.0
8.22000, 15.0
8.26000, 10.0
8.30000, 13.0
8.34000, 11.0
8.38000, 13.0
8.42000, 11.0
8.46000, 5.0
8.50000, 12.0
8.54000, 12.0
8.58000, 10.0
8.62000, 12.0
8.66000, 7.0
8.70000, 3.0
8.74000, 5.0
8.78000, 6.0
8.82000, 10.0
8.86000, 6.0
8.90000, 4.0
8.94000, 6.0
8.98000, 3.0
9.02000, 5.0
9.06000, 4.0
9.10000, 6.0
9.14000, 5.0
9.18000, 2.0
9.22000, 3.0
9.26000, 3.0
9.30000, 3.0
9.34000, 0.0
9.38000, 0.0
9.42000, 0.0
9.46000, 2.0
9.50000, 0.0
9.54000, 0.0
9.58000, 0.0
9.62000, 0.0
9.66000, 0.0
9.70000, 0.0
9.74000, 0.0
9.78000, 0.0
9.82000, 0.0
9.86000, 0.0
9.90000, 0.0
9.94000, 0.0
9.98000, 0.0
10.02000, 0.0
10.06000, 0.0
10.10000, 0.0
10.13000, 0.0
#ENDOFDATA   :

File: site 4_Spectrum 9.txt
#FORMAT      : EMSA/MAS Spectral Data File
#VERSION     : 1.0
#TITLE       : Spectrum 9
#DATE        : 07-APR-2022
#TIME        : 17:09
#OWNER       :
#NPOINTS     : 1024.0
#NCOLUMNS    : 1.0
#XUNITS      : keV
#YUNITS      : counts
#DATATYPE    : XY
#XPERCHAN    : 0.01
#OFFSET      : -0.1
#SIGNALTYPE  : EDS
#CHOFFSET    : 10.0
#LIVETIME    : 99.5101
#REALTIME    : 107.528
#BEAMKV      : 10.0
#MAGCAM      : 1700.0
#XTILTSTGE   : 0.0
#AZIMANGLE   : 0.0
#ELEVANGLE   : 29.0
#XPOSITION mm: -5.2765
#YPOSITION mm: 4.4840
#ZPOSITION mm: 14.0000
##OXINSTPT   : 4
##OXINSTSTROB: 48.50
##OXINSTELEMS: 6,8,14,20,11,13,17,19,26
##OXINSTLABEL: 6, 0.277, C
##OXINSTLABEL: 8, 0.525, O
##OXINSTLABEL: 14, 1.740, Si
##OXINSTLABEL: 20, 3.692, Ca
##OXINSTLABEL: 20, 4.013, Ca
##OXINSTLABEL: 20, 0.341, Ca
##OXINSTLABEL: 20, 0.303, Ca
##OXINSTLABEL: 11, 1.041, Na
##OXINSTLABEL: 13, 1.487, Al
##OXINSTLABEL: 17, 2.622, Cl
##OXINSTLABEL: 17, 2.816, Cl
##OXINSTLABEL: 17, 0.181, Cl
##OXINSTLABEL: 19, 3.314, K
##OXINSTLABEL: 19, 3.590, K
##OXINSTLABEL: 19, 0.260, K
##OXINSTLABEL: 26, 6.404, Fe
##OXINSTLABEL: 26, 7.058, Fe
##OXINSTLABEL: 26, 0.703, Fe
##OXINSTLABEL: 26, 0.615, Fe
#SPECTRUM    : Spectral Data Starts Here
-0.10000, 0.0
-0.06000, 0.0
-0.02000, 59.0
0.02000, 2216.0
0.06000, 4169.0
0.10000, 465.0
0.14000, 267.0
0.18000, 331.0
0.22000, 982.0
0.26000, 4136.0
0.30000, 2647.0
0.34000, 432.0
0.38000, 508.0
0.42000, 881.0
0.46000, 4258.0
0.50000, 29273.0
0.54000, 33336.0
0.58000, 4531.0
0.62000, 488.0
0.66000, 516.0
0.70000, 657.0
0.74000, 673.0
0.78000, 577.0
0.82000, 635.0
0.86000, 654.0
0.90000, 688.0
0.94000, 679.0
0.98000, 792.0
1.02000, 1396.0
1.06000, 1477.0
1.10000, 902.0
1.14000, 673.0
1.18000, 686.0
1.22000, 679.0
1.26000, 690.0
1.30000, 681.0
1.34000, 698.0
1.38000, 667.0
1.42000, 832.0
1.46000, 1872.0
1.50000, 2406.0
1.54000, 1305.0
1.58000, 752.0
1.62000, 712.0
1.66000, 2317.0
1.70000, 14689.0
1.74000, 31621.0
1.78000, 19217.0
1.82000, 4502.0
1.86000, 1443.0
1.90000, 647.0
1.94000, 418.0
1.98000, 381.0
2.02000, 415.0
2.06000, 349.0
2.10000, 333.0
2.14000, 300.0
2.18000, 317.0
2.22000, 357.0
2.26000, 386.0
2.30000, 366.0
2.34000, 355.0
2.38000, 299.0
2.42000, 279.0
2.46000, 269.0
2.50000, 263.0
2.54000, 293.0
2.58000, 372.0
2.62000, 486.0
2.66000, 424.0
2.70000, 301.0
2.74000, 257.0
2.78000, 242.0
2.82000, 266.0
2.86000, 264.0
2.90000, 222.0
2.94000, 225.0
2.98000, 219.0
3.02000, 213.0
3.06000, 219.0
3.10000, 227.0
3.14000, 180.0
3.18000, 203.0
3.22000, 216.0
3.26000, 268.0
3.30000, 352.0
3.34000, 338.0
3.38000, 268.0
3.42000, 190.0
3.46000, 191.0
3.50000, 211.0
3.54000, 198.0
3.58000, 217.0
3.62000, 316.0
3.66000, 574.0
3.70000, 730.0
3.74000, 505.0
3.78000, 235.0
3.82000, 175.0
3.86000, 167.0
3.90000, 142.0
3.94000, 148.0
3.98000, 190.0
4.02000, 205.0
4.06000, 180.0
4.10000, 127.0
4.14000, 114.0
4.18000, 132.0
4.22000, 118.0
4.26000, 113.0
4.30000, 121.0
4.34000, 110.0
4.38000, 99.0
4.42000, 122.0
4.46000, 114.0
4.50000, 124.0
4.54000, 120.0
4.58000, 101.0
4.62000, 96.0
4.66000, 95.0
4.70000, 95.0
4.74000, 97.0
4.78000, 88.0
4.82000, 92.0
4.86000, 90.0
4.90000, 85.0
4.94000, 79.0
4.98000, 82.0
5.02000, 77.0
5.06000, 88.0
5.10000, 67.0
5.14000, 90.0
5.18000, 76.0
5.22000, 88.0
5.26000, 82.0
5.30000, 76.0
5.34000, 68.0
5.38000, 68.0
5.42000, 79.0
5.46000, 77.0
5.50000, 61.0
5.54000, 69.0
5.58000, 71.0
5.62000, 70.0
5.66000, 63.0
5.70000, 64.0
5.74000, 62.0
5.78000, 63.0
5.82000, 59.0
5.86000, 58.0
5.90000, 49.0
5.94000, 49.0
5.98000, 51.0
6.02000, 54.0
6.06000, 59.0
6.10000, 49.0
6.14000, 45.0
6.18000, 53.0
6.22000, 45.0
6.26000, 41.0
6.30000, 50.0
6.34000, 57.0
6.38000, 74.0
6.42000, 64.0
6.46000, 59.0
6.50000, 45.0
6.54000, 40.0
6.58000, 41.0
6.62000, 44.0
6.66000, 41.0
6.70000, 38.0
6.74000, 29.0
6.78000, 28.0
6.82000, 37.0
6.86000, 29.0
6.90000, 33.0
6.94000, 32.0
6.98000, 38.0
7.02000, 35.0
7.06000, 38.0
7.10000, 31.0
7.14000, 42.0
7.18000, 26.0
7.22000, 26.0
7.26000, 24.0
7.30000, 36.0
7.34000, 22.0
7.38000, 28.0
7.42000, 26.0
7.46000, 22.0
7.50000, 18.0
7.54000, 21.0
7.58000, 23.0
7.62000, 22.0
7.66000, 26.0
7.70000, 21.0
7.74000, 15.0
7.78000, 17.0
7.82000, 23.0
7.86000, 16.0
7.90000, 13.0
7.94000, 18.0
7.98000, 26.0
8.02000, 25.0
8.06000, 11.0
8.10000, 16.0
8.14000, 12.0
8.18000, 16.0
8.22000, 13.0
8.26000, 14.0
8.30000, 7.0
8.34000, 14.0
8.38000, 8.0
8.42000, 13.0
8.46000, 10.0
8.50000, 15.0
8.54000, 9.0
8.58000, 11.0
8.62000, 7.0
8.66000, 8.0
8.70000, 8.0
8.74000, 6.0
8.78000, 10.0
8.82000, 8.0
8.86000, 4.0
8.90000, 8.0
8.94000, 5.0
8.98000, 7.0
9.02000, 5.0
9.06000, 3.0
9.10000, 4.0
9.14000, 4.0
9.18000, 5.0
9.22000, 4.0
9.26000, 3.0
9.30000, 2.0
9.34000, 3.0
9.38000, 3.0
9.42000, 1.0
9.46000, 0.0
9.50000, 0.0
9.54000, 0.0
9.58000, 0.0
9.62000, 1.0
9.66000, 0.0
9.70000, 0.0
9.74000, 0.0
9.78000, 0.0
9.82000, 0.0
9.86000, 0.0
9.90000, 0.0
9.94000, 0.0
9.98000, 1.0
10.02000, 0.0
10.06000, 0.0
10.10000, 0.0
10.13000, 0.0
#ENDOFDATA   :